/////////////////////////////////////////////////////////////////////////////////
/// Profile Data Ascii Dump (XRD)                                             ///
/////////////////////////////////////////////////////////////////////////////////

  Group     : 2019_05_08_Caio
  Data      : PMoida
  File Name : PMoida.RAW

# Profile Datafile
          comment             =  
          date & time         = 05-08-19 09:36:25 

# Measurement Condition
    X-ray tube
          target              = Cu 
          voltage             = 40.0 (kV)
          current             = 40.0 (mA)
    Slits
          divergence slit     = 1.00000 (mm)  
          scatter slit        = 1.00000 (mm)  
          receiving slit      = 0.30000 (mm)  
    Scanning
          drive axis          = Theta-2Theta 
          scan range          =    5.000 -  120.000 
          scan mode           = Continuous Scan 
          scan speed          =   2.0000 (deg/min) 
          sampling pitch      =   0.0200 (deg) 
          preset time         =   0.60 (sec) 

# Data      [ Total No. = 5751 ]
  <2Theta>   <   I   >
     5.0000        30
     5.0200        28
     5.0400        26
     5.0600        22
     5.0800        28
     5.1000        26
     5.1200        22
     5.1400        34
     5.1600        30
     5.1800        32
     5.2000        24
     5.2200        34
     5.2400        36
     5.2600        26
     5.2800        36
     5.3000        36
     5.3200        36
     5.3400        24
     5.3600        26
     5.3800        22
     5.4000        24
     5.4200        34
     5.4400        30
     5.4600        26
     5.4800        28
     5.5000        18
     5.5200        30
     5.5400        22
     5.5600        18
     5.5800        28
     5.6000        24
     5.6200        26
     5.6400        32
     5.6600        26
     5.6800        18
     5.7000        20
     5.7200        28
     5.7400        20
     5.7600        24
     5.7800        26
     5.8000        24
     5.8200        20
     5.8400        26
     5.8600        20
     5.8800        30
     5.9000        26
     5.9200        26
     5.9400        22
     5.9600        30
     5.9800        22
     6.0000        24
     6.0200        32
     6.0400        26
     6.0600        24
     6.0800        22
     6.1000        24
     6.1200        20
     6.1400        26
     6.1600        28
     6.1800        18
     6.2000        26
     6.2200        30
     6.2400        20
     6.2600        22
     6.2800        32
     6.3000        22
     6.3200        22
     6.3400        12
     6.3600        26
     6.3800        32
     6.4000        20
     6.4200        26
     6.4400        18
     6.4600        18
     6.4800        30
     6.5000        26
     6.5200        22
     6.5400        30
     6.5600        16
     6.5800        34
     6.6000        26
     6.6200        30
     6.6400        26
     6.6600        30
     6.6800        28
     6.7000        18
     6.7200        18
     6.7400        20
     6.7600        28
     6.7800        22
     6.8000        34
     6.8200        26
     6.8400        28
     6.8600        26
     6.8800        20
     6.9000        22
     6.9200        22
     6.9400        16
     6.9600        30
     6.9800        22
     7.0000        16
     7.0200        16
     7.0400        34
     7.0600        20
     7.0800        28
     7.1000        32
     7.1200        24
     7.1400        30
     7.1600        26
     7.1800        24
     7.2000        28
     7.2200        20
     7.2400        24
     7.2600        28
     7.2800        18
     7.3000        18
     7.3200        18
     7.3400        24
     7.3600        28
     7.3800        28
     7.4000        24
     7.4200        32
     7.4400        18
     7.4600        26
     7.4800        24
     7.5000        14
     7.5200        28
     7.5400        26
     7.5600        28
     7.5800        24
     7.6000        26
     7.6200        28
     7.6400        30
     7.6600        28
     7.6800        28
     7.7000        32
     7.7200        24
     7.7400        22
     7.7600        18
     7.7800        36
     7.8000        32
     7.8200        32
     7.8400        36
     7.8600        26
     7.8800        22
     7.9000        16
     7.9200        28
     7.9400        24
     7.9600        26
     7.9800        28
     8.0000        32
     8.0200        30
     8.0400        26
     8.0600        24
     8.0800        32
     8.1000        22
     8.1200        22
     8.1400        24
     8.1600        22
     8.1800        24
     8.2000        20
     8.2200        38
     8.2400        22
     8.2600        24
     8.2800        16
     8.3000        40
     8.3200        28
     8.3400        30
     8.3600        32
     8.3800        22
     8.4000        26
     8.4200        26
     8.4400        28
     8.4600        32
     8.4800        26
     8.5000        22
     8.5200        34
     8.5400        34
     8.5600        30
     8.5800        26
     8.6000        28
     8.6200        32
     8.6400        22
     8.6600        26
     8.6800        26
     8.7000        28
     8.7200        22
     8.7400        20
     8.7600        34
     8.7800        24
     8.8000        30
     8.8200        26
     8.8400        28
     8.8600        32
     8.8800        34
     8.9000        30
     8.9200        38
     8.9400        26
     8.9600        40
     8.9800        24
     9.0000        36
     9.0200        32
     9.0400        22
     9.0600        26
     9.0800        28
     9.1000        48
     9.1200        40
     9.1400        34
     9.1600        22
     9.1800        30
     9.2000        28
     9.2200        34
     9.2400        30
     9.2600        28
     9.2800        28
     9.3000        26
     9.3200        20
     9.3400        40
     9.3600        32
     9.3800        28
     9.4000        30
     9.4200        24
     9.4400        34
     9.4600        16
     9.4800        42
     9.5000        30
     9.5200        24
     9.5400        30
     9.5600        28
     9.5800        26
     9.6000        32
     9.6200        26
     9.6400        26
     9.6600        28
     9.6800        18
     9.7000        28
     9.7200        26
     9.7400        22
     9.7600        28
     9.7800        32
     9.8000        24
     9.8200        30
     9.8400        30
     9.8600        26
     9.8800        28
     9.9000        22
     9.9200        28
     9.9400        30
     9.9600        28
     9.9800        24
    10.0000        22
    10.0200        42
    10.0400        30
    10.0600        34
    10.0800        26
    10.1000        28
    10.1200        28
    10.1400        34
    10.1600        18
    10.1800        22
    10.2000        22
    10.2200        24
    10.2400        30
    10.2600        26
    10.2800        30
    10.3000        18
    10.3200        22
    10.3400        34
    10.3600        30
    10.3800        28
    10.4000        26
    10.4200        28
    10.4400        24
    10.4600        30
    10.4800        22
    10.5000        22
    10.5200        26
    10.5400        22
    10.5600        24
    10.5800        22
    10.6000        32
    10.6200        44
    10.6400        22
    10.6600        24
    10.6800        38
    10.7000        24
    10.7200        22
    10.7400        28
    10.7600        20
    10.7800        28
    10.8000        26
    10.8200        30
    10.8400        32
    10.8600        36
    10.8800        34
    10.9000        20
    10.9200        26
    10.9400        26
    10.9600        36
    10.9800        24
    11.0000        28
    11.0200        20
    11.0400        30
    11.0600        36
    11.0800        34
    11.1000        28
    11.1200        38
    11.1400        24
    11.1600        22
    11.1800        20
    11.2000        28
    11.2200        38
    11.2400        32
    11.2600        36
    11.2800        28
    11.3000        24
    11.3200        24
    11.3400        32
    11.3600        22
    11.3800        30
    11.4000        36
    11.4200        20
    11.4400        22
    11.4600        22
    11.4800        26
    11.5000        28
    11.5200        32
    11.5400        26
    11.5600        26
    11.5800        24
    11.6000        24
    11.6200        32
    11.6400        16
    11.6600        36
    11.6800        32
    11.7000        28
    11.7200        28
    11.7400        24
    11.7600        32
    11.7800        26
    11.8000        20
    11.8200        36
    11.8400        28
    11.8600        22
    11.8800        18
    11.9000        36
    11.9200        38
    11.9400        24
    11.9600        40
    11.9800        28
    12.0000        26
    12.0200        32
    12.0400        40
    12.0600        36
    12.0800        24
    12.1000        26
    12.1200        36
    12.1400        32
    12.1600        38
    12.1800        28
    12.2000        44
    12.2200        30
    12.2400        32
    12.2600        22
    12.2800        30
    12.3000        22
    12.3200        36
    12.3400        28
    12.3600        28
    12.3800        24
    12.4000        28
    12.4200        30
    12.4400        42
    12.4600        36
    12.4800        26
    12.5000        36
    12.5200        32
    12.5400        42
    12.5600        30
    12.5800        22
    12.6000        26
    12.6200        34
    12.6400        24
    12.6600        28
    12.6800        34
    12.7000        34
    12.7200        30
    12.7400        30
    12.7600        38
    12.7800        32
    12.8000        30
    12.8200        20
    12.8400        42
    12.8600        30
    12.8800        38
    12.9000        54
    12.9200        26
    12.9400        38
    12.9600        18
    12.9800        28
    13.0000        42
    13.0200        26
    13.0400        30
    13.0600        34
    13.0800        32
    13.1000        40
    13.1200        30
    13.1400        38
    13.1600        26
    13.1800        30
    13.2000        32
    13.2200        32
    13.2400        36
    13.2600        28
    13.2800        40
    13.3000        36
    13.3200        38
    13.3400        30
    13.3600        36
    13.3800        42
    13.4000        32
    13.4200        52
    13.4400        36
    13.4600        26
    13.4800        40
    13.5000        28
    13.5200        42
    13.5400        40
    13.5600        42
    13.5800        28
    13.6000        44
    13.6200        38
    13.6400        44
    13.6600        42
    13.6800        44
    13.7000        44
    13.7200        24
    13.7400        30
    13.7600        44
    13.7800        48
    13.8000        28
    13.8200        46
    13.8400        50
    13.8600        36
    13.8800        38
    13.9000        40
    13.9200        42
    13.9400        38
    13.9600        48
    13.9800        42
    14.0000        48
    14.0200        40
    14.0400        56
    14.0600        52
    14.0800        44
    14.1000        48
    14.1200        52
    14.1400        42
    14.1600        40
    14.1800        38
    14.2000        46
    14.2200        56
    14.2400        24
    14.2600        46
    14.2800        42
    14.3000        36
    14.3200        42
    14.3400        34
    14.3600        38
    14.3800        40
    14.4000        48
    14.4200        46
    14.4400        38
    14.4600        46
    14.4800        34
    14.5000        42
    14.5200        58
    14.5400        40
    14.5600        32
    14.5800        50
    14.6000        42
    14.6200        58
    14.6400        48
    14.6600        48
    14.6800        48
    14.7000        50
    14.7200        42
    14.7400        38
    14.7600        42
    14.7800        44
    14.8000        48
    14.8200        44
    14.8400        48
    14.8600        40
    14.8800        40
    14.9000        38
    14.9200        38
    14.9400        46
    14.9600        38
    14.9800        50
    15.0000        46
    15.0200        38
    15.0400        44
    15.0600        48
    15.0800        42
    15.1000        46
    15.1200        38
    15.1400        54
    15.1600        42
    15.1800        42
    15.2000        56
    15.2200        56
    15.2400        54
    15.2600        58
    15.2800        44
    15.3000        44
    15.3200        52
    15.3400        50
    15.3600        52
    15.3800        42
    15.4000        54
    15.4200        54
    15.4400        44
    15.4600        44
    15.4800        48
    15.5000        52
    15.5200        36
    15.5400        36
    15.5600        58
    15.5800        52
    15.6000        46
    15.6200        54
    15.6400        54
    15.6600        48
    15.6800        46
    15.7000        42
    15.7200        56
    15.7400        52
    15.7600        48
    15.7800        36
    15.8000        46
    15.8200        52
    15.8400        42
    15.8600        56
    15.8800        52
    15.9000        56
    15.9200        56
    15.9400        52
    15.9600        48
    15.9800        52
    16.0000        58
    16.0200        38
    16.0400        54
    16.0600        56
    16.0800        36
    16.1000        48
    16.1200        46
    16.1400        52
    16.1600        76
    16.1800        42
    16.2000        50
    16.2200        58
    16.2400        60
    16.2600        46
    16.2800        50
    16.3000        54
    16.3200        52
    16.3400        50
    16.3600        56
    16.3800        60
    16.4000        68
    16.4200        66
    16.4400        50
    16.4600        78
    16.4800        50
    16.5000        72
    16.5200        70
    16.5400        66
    16.5600        84
    16.5800        86
    16.6000        90
    16.6200       100
    16.6400        84
    16.6600       100
    16.6800       118
    16.7000       100
    16.7200        76
    16.7400        90
    16.7600        72
    16.7800        62
    16.8000        44
    16.8200        62
    16.8400        54
    16.8600        56
    16.8800        48
    16.9000        40
    16.9200        48
    16.9400        42
    16.9600        52
    16.9800        54
    17.0000        50
    17.0200        42
    17.0400        56
    17.0600        44
    17.0800        46
    17.1000        52
    17.1200        40
    17.1400        44
    17.1600        54
    17.1800        48
    17.2000        34
    17.2200        44
    17.2400        46
    17.2600        48
    17.2800        34
    17.3000        38
    17.3200        36
    17.3400        44
    17.3600        46
    17.3800        40
    17.4000        44
    17.4200        50
    17.4400        40
    17.4600        40
    17.4800        54
    17.5000        44
    17.5200        44
    17.5400        32
    17.5600        36
    17.5800        36
    17.6000        44
    17.6200        46
    17.6400        48
    17.6600        34
    17.6800        48
    17.7000        54
    17.7200        54
    17.7400        34
    17.7600        54
    17.7800        66
    17.8000        44
    17.8200        52
    17.8400        54
    17.8600        56
    17.8800        52
    17.9000        46
    17.9200        42
    17.9400        42
    17.9600        50
    17.9800        46
    18.0000        54
    18.0200        36
    18.0400        44
    18.0600        38
    18.0800        38
    18.1000        44
    18.1200        44
    18.1400        54
    18.1600        38
    18.1800        50
    18.2000        46
    18.2200        42
    18.2400        48
    18.2600        38
    18.2800        42
    18.3000        46
    18.3200        52
    18.3400        48
    18.3600        32
    18.3800        58
    18.4000        44
    18.4200        42
    18.4400        48
    18.4600        38
    18.4800        36
    18.5000        30
    18.5200        46
    18.5400        50
    18.5600        64
    18.5800        34
    18.6000        50
    18.6200        34
    18.6400        42
    18.6600        52
    18.6800        58
    18.7000        44
    18.7200        50
    18.7400        46
    18.7600        56
    18.7800        48
    18.8000        54
    18.8200        52
    18.8400        50
    18.8600        62
    18.8800        54
    18.9000        56
    18.9200        44
    18.9400        46
    18.9600        62
    18.9800        46
    19.0000        56
    19.0200        56
    19.0400        62
    19.0600        56
    19.0800        54
    19.1000        42
    19.1200        48
    19.1400        60
    19.1600        48
    19.1800        42
    19.2000        46
    19.2200        54
    19.2400        42
    19.2600        64
    19.2800        56
    19.3000        46
    19.3200        52
    19.3400        42
    19.3600        48
    19.3800        60
    19.4000        48
    19.4200        52
    19.4400        62
    19.4600        54
    19.4800        68
    19.5000        56
    19.5200        60
    19.5400        50
    19.5600        40
    19.5800        76
    19.6000        64
    19.6200        54
    19.6400        64
    19.6600        54
    19.6800        68
    19.7000        56
    19.7200        58
    19.7400        52
    19.7600        48
    19.7800        52
    19.8000        58
    19.8200        38
    19.8400        52
    19.8600        54
    19.8800        54
    19.9000        56
    19.9200        62
    19.9400        62
    19.9600        58
    19.9800        54
    20.0000        52
    20.0200        44
    20.0400        40
    20.0600        64
    20.0800        56
    20.1000        46
    20.1200        58
    20.1400        62
    20.1600        64
    20.1800        46
    20.2000        68
    20.2200        52
    20.2400        44
    20.2600        62
    20.2800        58
    20.3000        56
    20.3200        60
    20.3400        52
    20.3600        56
    20.3800        62
    20.4000        60
    20.4200        64
    20.4400        60
    20.4600        66
    20.4800        40
    20.5000        46
    20.5200        48
    20.5400        70
    20.5600        54
    20.5800        50
    20.6000        54
    20.6200        46
    20.6400        50
    20.6600        64
    20.6800        58
    20.7000        56
    20.7200        64
    20.7400        42
    20.7600        66
    20.7800        70
    20.8000        54
    20.8200        52
    20.8400        60
    20.8600        52
    20.8800        60
    20.9000        78
    20.9200        70
    20.9400        48
    20.9600        52
    20.9800        56
    21.0000        66
    21.0200        50
    21.0400        64
    21.0600        60
    21.0800        52
    21.1000        56
    21.1200        60
    21.1400        58
    21.1600        62
    21.1800        66
    21.2000        58
    21.2200        48
    21.2400        56
    21.2600        48
    21.2800        62
    21.3000        64
    21.3200        50
    21.3400        66
    21.3600        52
    21.3800        54
    21.4000        58
    21.4200        56
    21.4400        72
    21.4600        64
    21.4800        62
    21.5000        48
    21.5200        68
    21.5400        66
    21.5600        60
    21.5800        60
    21.6000        62
    21.6200        64
    21.6400        58
    21.6600        40
    21.6800        58
    21.7000        72
    21.7200        60
    21.7400        46
    21.7600        56
    21.7800        62
    21.8000        50
    21.8200        60
    21.8400        60
    21.8600        66
    21.8800        62
    21.9000        58
    21.9200        44
    21.9400        52
    21.9600        54
    21.9800        60
    22.0000        72
    22.0200        56
    22.0400        68
    22.0600        74
    22.0800        52
    22.1000        64
    22.1200        58
    22.1400        48
    22.1600        58
    22.1800        60
    22.2000        58
    22.2200        56
    22.2400        56
    22.2600        54
    22.2800        52
    22.3000        52
    22.3200        70
    22.3400        64
    22.3600        64
    22.3800        46
    22.4000        60
    22.4200        74
    22.4400        58
    22.4600        62
    22.4800        64
    22.5000        64
    22.5200        66
    22.5400        60
    22.5600        60
    22.5800        44
    22.6000        52
    22.6200        68
    22.6400        60
    22.6600        52
    22.6800        46
    22.7000        56
    22.7200        58
    22.7400        58
    22.7600        52
    22.7800        68
    22.8000        62
    22.8200        46
    22.8400        66
    22.8600        68
    22.8800        52
    22.9000        50
    22.9200        58
    22.9400        52
    22.9600        62
    22.9800        60
    23.0000        52
    23.0200        52
    23.0400        60
    23.0600        72
    23.0800        62
    23.1000        54
    23.1200        66
    23.1400        54
    23.1600        64
    23.1800        54
    23.2000        68
    23.2200        48
    23.2400        74
    23.2600        70
    23.2800        76
    23.3000        66
    23.3200        68
    23.3400        68
    23.3600        74
    23.3800        84
    23.4000        64
    23.4200        70
    23.4400        78
    23.4600        74
    23.4800        70
    23.5000        78
    23.5200        80
    23.5400        76
    23.5600        86
    23.5800        92
    23.6000        80
    23.6200        84
    23.6400        98
    23.6600       100
    23.6800        88
    23.7000       104
    23.7200        90
    23.7400        92
    23.7600        82
    23.7800        88
    23.8000        76
    23.8200        72
    23.8400        82
    23.8600        66
    23.8800        70
    23.9000        62
    23.9200        66
    23.9400        62
    23.9600        70
    23.9800        70
    24.0000        62
    24.0200        70
    24.0400        68
    24.0600        60
    24.0800        76
    24.1000        68
    24.1200        78
    24.1400        72
    24.1600        68
    24.1800        60
    24.2000        74
    24.2200        78
    24.2400        72
    24.2600        68
    24.2800        64
    24.3000        68
    24.3200        86
    24.3400        84
    24.3600        72
    24.3800        66
    24.4000        78
    24.4200        66
    24.4400        74
    24.4600        70
    24.4800        76
    24.5000        80
    24.5200        70
    24.5400        76
    24.5600        74
    24.5800        78
    24.6000        50
    24.6200        54
    24.6400        72
    24.6600        80
    24.6800        86
    24.7000        80
    24.7200        70
    24.7400        86
    24.7600        88
    24.7800        90
    24.8000        84
    24.8200        68
    24.8400        92
    24.8600        82
    24.8800        94
    24.9000        86
    24.9200        80
    24.9400        90
    24.9600       106
    24.9800        74
    25.0000        90
    25.0200        84
    25.0400        94
    25.0600        78
    25.0800        84
    25.1000        76
    25.1200        74
    25.1400        84
    25.1600        88
    25.1800        82
    25.2000        84
    25.2200        90
    25.2400        82
    25.2600        80
    25.2800        88
    25.3000        90
    25.3200        84
    25.3400        80
    25.3600        92
    25.3800        78
    25.4000        84
    25.4200        76
    25.4400        82
    25.4600        92
    25.4800       102
    25.5000        88
    25.5200        88
    25.5400        88
    25.5600        74
    25.5800        88
    25.6000        92
    25.6200        86
    25.6400        74
    25.6600        96
    25.6800        86
    25.7000        74
    25.7200        76
    25.7400        88
    25.7600        84
    25.7800        78
    25.8000        92
    25.8200        76
    25.8400        84
    25.8600        80
    25.8800        78
    25.9000        86
    25.9200        82
    25.9400        94
    25.9600        70
    25.9800        88
    26.0000        70
    26.0200        64
    26.0400        66
    26.0600        82
    26.0800        76
    26.1000        56
    26.1200        70
    26.1400        74
    26.1600        72
    26.1800        68
    26.2000        76
    26.2200        70
    26.2400        60
    26.2600        76
    26.2800        64
    26.3000        68
    26.3200        72
    26.3400        78
    26.3600        76
    26.3800        76
    26.4000        64
    26.4200        62
    26.4400        42
    26.4600        82
    26.4800        72
    26.5000        72
    26.5200        64
    26.5400        80
    26.5600        68
    26.5800        46
    26.6000        68
    26.6200        64
    26.6400        78
    26.6600        74
    26.6800        62
    26.7000        90
    26.7200        76
    26.7400        54
    26.7600        68
    26.7800        54
    26.8000        78
    26.8200        74
    26.8400        82
    26.8600        64
    26.8800        62
    26.9000        68
    26.9200        72
    26.9400        60
    26.9600        66
    26.9800        58
    27.0000        72
    27.0200        52
    27.0400        74
    27.0600        64
    27.0800        74
    27.1000        46
    27.1200        72
    27.1400        62
    27.1600        70
    27.1800        60
    27.2000        70
    27.2200        64
    27.2400        80
    27.2600        54
    27.2800        62
    27.3000        70
    27.3200        58
    27.3400        72
    27.3600        74
    27.3800        64
    27.4000        76
    27.4200        74
    27.4400        58
    27.4600        68
    27.4800        72
    27.5000        64
    27.5200        80
    27.5400        62
    27.5600        64
    27.5800        58
    27.6000        74
    27.6200        52
    27.6400        70
    27.6600        60
    27.6800        62
    27.7000        70
    27.7200        60
    27.7400        72
    27.7600        70
    27.7800        56
    27.8000        64
    27.8200        60
    27.8400        64
    27.8600        56
    27.8800        68
    27.9000        66
    27.9200        66
    27.9400        78
    27.9600        58
    27.9800        60
    28.0000        54
    28.0200        48
    28.0400        68
    28.0600        54
    28.0800        64
    28.1000        64
    28.1200        56
    28.1400        54
    28.1600        52
    28.1800        54
    28.2000        54
    28.2200        64
    28.2400        62
    28.2600        60
    28.2800        48
    28.3000        48
    28.3200        54
    28.3400        66
    28.3600        58
    28.3800        58
    28.4000        54
    28.4200        58
    28.4400        48
    28.4600        62
    28.4800        70
    28.5000        52
    28.5200        62
    28.5400        56
    28.5600        58
    28.5800        52
    28.6000        74
    28.6200        44
    28.6400        72
    28.6600        68
    28.6800        68
    28.7000        48
    28.7200        58
    28.7400        56
    28.7600        64
    28.7800        58
    28.8000        72
    28.8200        74
    28.8400        72
    28.8600        76
    28.8800        90
    28.9000        76
    28.9200       100
    28.9400        90
    28.9600        74
    28.9800       116
    29.0000        98
    29.0200       108
    29.0400       104
    29.0600       104
    29.0800       112
    29.1000        90
    29.1200       108
    29.1400       102
    29.1600        94
    29.1800        54
    29.2000        56
    29.2200        74
    29.2400        58
    29.2600        58
    29.2800        54
    29.3000        48
    29.3200        50
    29.3400        52
    29.3600        52
    29.3800        54
    29.4000        58
    29.4200        38
    29.4400        48
    29.4600        58
    29.4800        52
    29.5000        48
    29.5200        56
    29.5400        52
    29.5600        52
    29.5800        46
    29.6000        50
    29.6200        56
    29.6400        50
    29.6600        48
    29.6800        48
    29.7000        50
    29.7200        62
    29.7400        48
    29.7600        38
    29.7800        56
    29.8000        44
    29.8200        42
    29.8400        50
    29.8600        42
    29.8800        50
    29.9000        50
    29.9200        54
    29.9400        58
    29.9600        46
    29.9800        62
    30.0000        52
    30.0200        50
    30.0400        60
    30.0600        62
    30.0800        44
    30.1000        48
    30.1200        50
    30.1400        48
    30.1600        46
    30.1800        52
    30.2000        48
    30.2200        46
    30.2400        40
    30.2600        46
    30.2800        42
    30.3000        50
    30.3200        54
    30.3400        30
    30.3600        34
    30.3800        46
    30.4000        50
    30.4200        36
    30.4400        42
    30.4600        36
    30.4800        52
    30.5000        34
    30.5200        42
    30.5400        40
    30.5600        48
    30.5800        46
    30.6000        60
    30.6200        40
    30.6400        42
    30.6600        44
    30.6800        38
    30.7000        56
    30.7200        46
    30.7400        48
    30.7600        38
    30.7800        46
    30.8000        32
    30.8200        44
    30.8400        48
    30.8600        44
    30.8800        48
    30.9000        32
    30.9200        44
    30.9400        50
    30.9600        32
    30.9800        26
    31.0000        40
    31.0200        40
    31.0400        38
    31.0600        34
    31.0800        34
    31.1000        40
    31.1200        34
    31.1400        34
    31.1600        30
    31.1800        34
    31.2000        36
    31.2200        32
    31.2400        42
    31.2600        30
    31.2800        32
    31.3000        38
    31.3200        36
    31.3400        40
    31.3600        32
    31.3800        40
    31.4000        36
    31.4200        30
    31.4400        36
    31.4600        42
    31.4800        28
    31.5000        50
    31.5200        30
    31.5400        26
    31.5600        30
    31.5800        26
    31.6000        36
    31.6200        30
    31.6400        32
    31.6600        34
    31.6800        36
    31.7000        44
    31.7200        30
    31.7400        36
    31.7600        36
    31.7800        28
    31.8000        32
    31.8200        38
    31.8400        40
    31.8600        32
    31.8800        28
    31.9000        38
    31.9200        28
    31.9400        30
    31.9600        32
    31.9800        28
    32.0000        38
    32.0200        36
    32.0400        40
    32.0600        40
    32.0800        36
    32.1000        30
    32.1200        26
    32.1400        30
    32.1600        24
    32.1800        36
    32.2000        34
    32.2200        36
    32.2400        32
    32.2600        26
    32.2800        24
    32.3000        42
    32.3200        32
    32.3400        28
    32.3600        32
    32.3800        34
    32.4000        24
    32.4200        36
    32.4400        32
    32.4600        50
    32.4800        34
    32.5000        34
    32.5200        28
    32.5400        38
    32.5600        26
    32.5800        48
    32.6000        26
    32.6200        26
    32.6400        28
    32.6600        28
    32.6800        26
    32.7000        30
    32.7200        18
    32.7400        32
    32.7600        38
    32.7800        32
    32.8000        32
    32.8200        32
    32.8400        36
    32.8600        32
    32.8800        26
    32.9000        34
    32.9200        36
    32.9400        32
    32.9600        26
    32.9800        36
    33.0000        34
    33.0200        22
    33.0400        30
    33.0600        40
    33.0800        38
    33.1000        34
    33.1200        32
    33.1400        32
    33.1600        38
    33.1800        34
    33.2000        40
    33.2200        32
    33.2400        36
    33.2600        34
    33.2800        32
    33.3000        38
    33.3200        36
    33.3400        30
    33.3600        38
    33.3800        28
    33.4000        42
    33.4200        28
    33.4400        32
    33.4600        32
    33.4800        26
    33.5000        34
    33.5200        24
    33.5400        42
    33.5600        44
    33.5800        36
    33.6000        44
    33.6200        18
    33.6400        28
    33.6600        42
    33.6800        38
    33.7000        58
    33.7200        38
    33.7400        40
    33.7600        42
    33.7800        40
    33.8000        50
    33.8200        34
    33.8400        46
    33.8600        46
    33.8800        34
    33.9000        40
    33.9200        30
    33.9400        34
    33.9600        30
    33.9800        42
    34.0000        34
    34.0200        26
    34.0400        34
    34.0600        30
    34.0800        32
    34.1000        28
    34.1200        38
    34.1400        26
    34.1600        30
    34.1800        30
    34.2000        24
    34.2200        30
    34.2400        28
    34.2600        26
    34.2800        24
    34.3000        26
    34.3200        44
    34.3400        24
    34.3600        26
    34.3800        28
    34.4000        30
    34.4200        38
    34.4400        40
    34.4600        40
    34.4800        36
    34.5000        28
    34.5200        36
    34.5400        40
    34.5600        22
    34.5800        24
    34.6000        30
    34.6200        18
    34.6400        16
    34.6600        44
    34.6800        26
    34.7000        30
    34.7200        34
    34.7400        24
    34.7600        24
    34.7800        34
    34.8000        32
    34.8200        32
    34.8400        28
    34.8600        36
    34.8800        20
    34.9000        30
    34.9200        38
    34.9400        40
    34.9600        34
    34.9800        40
    35.0000        26
    35.0200        32
    35.0400        42
    35.0600        36
    35.0800        34
    35.1000        32
    35.1200        38
    35.1400        42
    35.1600        40
    35.1800        44
    35.2000        40
    35.2200        42
    35.2400        44
    35.2600        58
    35.2800        36
    35.3000        48
    35.3200        54
    35.3400        40
    35.3600        46
    35.3800        48
    35.4000        44
    35.4200        62
    35.4400        66
    35.4600        54
    35.4800        54
    35.5000        62
    35.5200        40
    35.5400        50
    35.5600        40
    35.5800        38
    35.6000        28
    35.6200        48
    35.6400        42
    35.6600        36
    35.6800        30
    35.7000        46
    35.7200        30
    35.7400        30
    35.7600        40
    35.7800        32
    35.8000        32
    35.8200        42
    35.8400        40
    35.8600        26
    35.8800        32
    35.9000        32
    35.9200        24
    35.9400        32
    35.9600        30
    35.9800        28
    36.0000        22
    36.0200        30
    36.0400        16
    36.0600        32
    36.0800        38
    36.1000        22
    36.1200        24
    36.1400        32
    36.1600        28
    36.1800        32
    36.2000        28
    36.2200        30
    36.2400        28
    36.2600        30
    36.2800        26
    36.3000        32
    36.3200        32
    36.3400        24
    36.3600        28
    36.3800        30
    36.4000        16
    36.4200        28
    36.4400        24
    36.4600        24
    36.4800        22
    36.5000        24
    36.5200        26
    36.5400        20
    36.5600        26
    36.5800        30
    36.6000        34
    36.6200        32
    36.6400        32
    36.6600        30
    36.6800        42
    36.7000        26
    36.7200        24
    36.7400        22
    36.7600        26
    36.7800        34
    36.8000        26
    36.8200        26
    36.8400        26
    36.8600        22
    36.8800        26
    36.9000        22
    36.9200        20
    36.9400        26
    36.9600        26
    36.9800        28
    37.0000        24
    37.0200        22
    37.0400        36
    37.0600        18
    37.0800        28
    37.1000        38
    37.1200        24
    37.1400        28
    37.1600        26
    37.1800        32
    37.2000        28
    37.2200        20
    37.2400        24
    37.2600        24
    37.2800        30
    37.3000        26
    37.3200        32
    37.3400        20
    37.3600        30
    37.3800        36
    37.4000        30
    37.4200        24
    37.4400        40
    37.4600        24
    37.4800        32
    37.5000        30
    37.5200        26
    37.5400        30
    37.5600        28
    37.5800        28
    37.6000        34
    37.6200        18
    37.6400        20
    37.6600        18
    37.6800        28
    37.7000        26
    37.7200        40
    37.7400        36
    37.7600        28
    37.7800        30
    37.8000        34
    37.8200        26
    37.8400        34
    37.8600        24
    37.8800        30
    37.9000        34
    37.9200        40
    37.9400        24
    37.9600        22
    37.9800        24
    38.0000        28
    38.0200        38
    38.0400        22
    38.0600        28
    38.0800        28
    38.1000        26
    38.1200        32
    38.1400        26
    38.1600        26
    38.1800        22
    38.2000        40
    38.2200        28
    38.2400        18
    38.2600        18
    38.2800        28
    38.3000        28
    38.3200        30
    38.3400        20
    38.3600        20
    38.3800        28
    38.4000        14
    38.4200        24
    38.4400        26
    38.4600        24
    38.4800        32
    38.5000        20
    38.5200        18
    38.5400        24
    38.5600        12
    38.5800        36
    38.6000        18
    38.6200        22
    38.6400        34
    38.6600        20
    38.6800        22
    38.7000        22
    38.7200        22
    38.7400        26
    38.7600        26
    38.7800        26
    38.8000        18
    38.8200        16
    38.8400        22
    38.8600        22
    38.8800        26
    38.9000        24
    38.9200        34
    38.9400        28
    38.9600        26
    38.9800        14
    39.0000        24
    39.0200        26
    39.0400        22
    39.0600        24
    39.0800        10
    39.1000        36
    39.1200        30
    39.1400        30
    39.1600        24
    39.1800        18
    39.2000        20
    39.2200        28
    39.2400        26
    39.2600        32
    39.2800        30
    39.3000        28
    39.3200        34
    39.3400        22
    39.3600        22
    39.3800        26
    39.4000        26
    39.4200        28
    39.4400        16
    39.4600        20
    39.4800        24
    39.5000        20
    39.5200        32
    39.5400        24
    39.5600        26
    39.5800        22
    39.6000        38
    39.6200        26
    39.6400        22
    39.6600        22
    39.6800        26
    39.7000        16
    39.7200        22
    39.7400        20
    39.7600        18
    39.7800        22
    39.8000        26
    39.8200        30
    39.8400        30
    39.8600        28
    39.8800        20
    39.9000        28
    39.9200        20
    39.9400        18
    39.9600        32
    39.9800        22
    40.0000        24
    40.0200        20
    40.0400        22
    40.0600        26
    40.0800        20
    40.1000        22
    40.1200        20
    40.1400        18
    40.1600        28
    40.1800        28
    40.2000        24
    40.2200        24
    40.2400        28
    40.2600        28
    40.2800        20
    40.3000        16
    40.3200        30
    40.3400        20
    40.3600        18
    40.3800        16
    40.4000        28
    40.4200        30
    40.4400        24
    40.4600        20
    40.4800        26
    40.5000        16
    40.5200        12
    40.5400        18
    40.5600        34
    40.5800        36
    40.6000        22
    40.6200        28
    40.6400        14
    40.6600        26
    40.6800        28
    40.7000        26
    40.7200        18
    40.7400        36
    40.7600        18
    40.7800        26
    40.8000        24
    40.8200        24
    40.8400        22
    40.8600        20
    40.8800        26
    40.9000        22
    40.9200        24
    40.9400        30
    40.9600        26
    40.9800        28
    41.0000        20
    41.0200        22
    41.0400        26
    41.0600        24
    41.0800        20
    41.1000        24
    41.1200        22
    41.1400        18
    41.1600        24
    41.1800        34
    41.2000        26
    41.2200        24
    41.2400        26
    41.2600        24
    41.2800        20
    41.3000        22
    41.3200        40
    41.3400        22
    41.3600        14
    41.3800        16
    41.4000        20
    41.4200        18
    41.4400        24
    41.4600        20
    41.4800        22
    41.5000        24
    41.5200        22
    41.5400        20
    41.5600        22
    41.5800        30
    41.6000        24
    41.6200        12
    41.6400        12
    41.6600        28
    41.6800        18
    41.7000        18
    41.7200        24
    41.7400        26
    41.7600        28
    41.7800        20
    41.8000        26
    41.8200        30
    41.8400        22
    41.8600        18
    41.8800        22
    41.9000        18
    41.9200        42
    41.9400        28
    41.9600        30
    41.9800        22
    42.0000        20
    42.0200        10
    42.0400        16
    42.0600        28
    42.0800        22
    42.1000        30
    42.1200        28
    42.1400        16
    42.1600        28
    42.1800        32
    42.2000        24
    42.2200        22
    42.2400        20
    42.2600        30
    42.2800        24
    42.3000        34
    42.3200        24
    42.3400        20
    42.3600        18
    42.3800        20
    42.4000        30
    42.4200        26
    42.4400        24
    42.4600        24
    42.4800        24
    42.5000        28
    42.5200        38
    42.5400        20
    42.5600        30
    42.5800        26
    42.6000        36
    42.6200        42
    42.6400        24
    42.6600        28
    42.6800        22
    42.7000        22
    42.7200        18
    42.7400        18
    42.7600        20
    42.7800        28
    42.8000        34
    42.8200        28
    42.8400        16
    42.8600        26
    42.8800        28
    42.9000        30
    42.9200        24
    42.9400        32
    42.9600        28
    42.9800        32
    43.0000        34
    43.0200        34
    43.0400        42
    43.0600        18
    43.0800        30
    43.1000        28
    43.1200        30
    43.1400        34
    43.1600        30
    43.1800        28
    43.2000        34
    43.2200        22
    43.2400        24
    43.2600        30
    43.2800        34
    43.3000        30
    43.3200        30
    43.3400        16
    43.3600        28
    43.3800        12
    43.4000        28
    43.4200        24
    43.4400        14
    43.4600        30
    43.4800        26
    43.5000        16
    43.5200        24
    43.5400        20
    43.5600        22
    43.5800        24
    43.6000        28
    43.6200        28
    43.6400        24
    43.6600        18
    43.6800        20
    43.7000        18
    43.7200        26
    43.7400        26
    43.7600        26
    43.7800        22
    43.8000        20
    43.8200        18
    43.8400        24
    43.8600        34
    43.8800        26
    43.9000        24
    43.9200        28
    43.9400        26
    43.9600        30
    43.9800        30
    44.0000        26
    44.0200        24
    44.0400        28
    44.0600        34
    44.0800        30
    44.1000        28
    44.1200        34
    44.1400        22
    44.1600        26
    44.1800        28
    44.2000        26
    44.2200        24
    44.2400        26
    44.2600        18
    44.2800        24
    44.3000        18
    44.3200        24
    44.3400        28
    44.3600        26
    44.3800        22
    44.4000        24
    44.4200        22
    44.4400        28
    44.4600        22
    44.4800        28
    44.5000        26
    44.5200        38
    44.5400        22
    44.5600        32
    44.5800        26
    44.6000        20
    44.6200        24
    44.6400        20
    44.6600        30
    44.6800        32
    44.7000        28
    44.7200        32
    44.7400        34
    44.7600        22
    44.7800        28
    44.8000        18
    44.8200        24
    44.8400        32
    44.8600        28
    44.8800        40
    44.9000        20
    44.9200        40
    44.9400        36
    44.9600        34
    44.9800        36
    45.0000        30
    45.0200        42
    45.0400        30
    45.0600        36
    45.0800        30
    45.1000        46
    45.1200        50
    45.1400        48
    45.1600        36
    45.1800        36
    45.2000        38
    45.2200        34
    45.2400        36
    45.2600        34
    45.2800        22
    45.3000        32
    45.3200        26
    45.3400        28
    45.3600        22
    45.3800        28
    45.4000        18
    45.4200        20
    45.4400        14
    45.4600        20
    45.4800        22
    45.5000        20
    45.5200        14
    45.5400        22
    45.5600        18
    45.5800        26
    45.6000        16
    45.6200        28
    45.6400        24
    45.6600        16
    45.6800        28
    45.7000        16
    45.7200        22
    45.7400        14
    45.7600        28
    45.7800        20
    45.8000        20
    45.8200        24
    45.8400        26
    45.8600        18
    45.8800        16
    45.9000        20
    45.9200        30
    45.9400        14
    45.9600        18
    45.9800        20
    46.0000        26
    46.0200        22
    46.0400        12
    46.0600        22
    46.0800        20
    46.1000        18
    46.1200        16
    46.1400        16
    46.1600        18
    46.1800        22
    46.2000        24
    46.2200        26
    46.2400        28
    46.2600        24
    46.2800        26
    46.3000        22
    46.3200        20
    46.3400        22
    46.3600        22
    46.3800        20
    46.4000        26
    46.4200        26
    46.4400        18
    46.4600        20
    46.4800        24
    46.5000        24
    46.5200        20
    46.5400        18
    46.5600        20
    46.5800        14
    46.6000        18
    46.6200        18
    46.6400        18
    46.6600        12
    46.6800        18
    46.7000        24
    46.7200        16
    46.7400        28
    46.7600        24
    46.7800        22
    46.8000        18
    46.8200        20
    46.8400        22
    46.8600        18
    46.8800        16
    46.9000        20
    46.9200        24
    46.9400        20
    46.9600        22
    46.9800        22
    47.0000        18
    47.0200        20
    47.0400        24
    47.0600        16
    47.0800        24
    47.1000        22
    47.1200        22
    47.1400        18
    47.1600        22
    47.1800        22
    47.2000        30
    47.2200        16
    47.2400        20
    47.2600        20
    47.2800        22
    47.3000        18
    47.3200        22
    47.3400        20
    47.3600        18
    47.3800        24
    47.4000        20
    47.4200        24
    47.4400        20
    47.4600        20
    47.4800        16
    47.5000        18
    47.5200        22
    47.5400        22
    47.5600        16
    47.5800        20
    47.6000        24
    47.6200        18
    47.6400        24
    47.6600        22
    47.6800        18
    47.7000        24
    47.7200        18
    47.7400        20
    47.7600        14
    47.7800        14
    47.8000        16
    47.8200        22
    47.8400        14
    47.8600        14
    47.8800        16
    47.9000        20
    47.9200        16
    47.9400        20
    47.9600        24
    47.9800        18
    48.0000        18
    48.0200        32
    48.0400        20
    48.0600        12
    48.0800        10
    48.1000        20
    48.1200        24
    48.1400        26
    48.1600        24
    48.1800        20
    48.2000        20
    48.2200        20
    48.2400        18
    48.2600        18
    48.2800        20
    48.3000        22
    48.3200        18
    48.3400        16
    48.3600        20
    48.3800        24
    48.4000        24
    48.4200        12
    48.4400        20
    48.4600        22
    48.4800        22
    48.5000        18
    48.5200        32
    48.5400        20
    48.5600        24
    48.5800        24
    48.6000        20
    48.6200        14
    48.6400        18
    48.6600        22
    48.6800        14
    48.7000        20
    48.7200        16
    48.7400        20
    48.7600        28
    48.7800        20
    48.8000        18
    48.8200        20
    48.8400        24
    48.8600        26
    48.8800        20
    48.9000        22
    48.9200        16
    48.9400        22
    48.9600        26
    48.9800        20
    49.0000        14
    49.0200        26
    49.0400        16
    49.0600        26
    49.0800        28
    49.1000        22
    49.1200        14
    49.1400        24
    49.1600        18
    49.1800        16
    49.2000        12
    49.2200        22
    49.2400        22
    49.2600        20
    49.2800        14
    49.3000        22
    49.3200        20
    49.3400        18
    49.3600        10
    49.3800        16
    49.4000        28
    49.4200        12
    49.4400        14
    49.4600        18
    49.4800        22
    49.5000        12
    49.5200        20
    49.5400        22
    49.5600        16
    49.5800        18
    49.6000        22
    49.6200        30
    49.6400        18
    49.6600        24
    49.6800        24
    49.7000        26
    49.7200        18
    49.7400        22
    49.7600        16
    49.7800        20
    49.8000        18
    49.8200        16
    49.8400        24
    49.8600        14
    49.8800        16
    49.9000        26
    49.9200        24
    49.9400        20
    49.9600        22
    49.9800        20
    50.0000        24
    50.0200        16
    50.0400        26
    50.0600        24
    50.0800        24
    50.1000        26
    50.1200        18
    50.1400        24
    50.1600        18
    50.1800        26
    50.2000        28
    50.2200        34
    50.2400        20
    50.2600        16
    50.2800        14
    50.3000        22
    50.3200        14
    50.3400        18
    50.3600        18
    50.3800        24
    50.4000        14
    50.4200        18
    50.4400        18
    50.4600        22
    50.4800        14
    50.5000        28
    50.5200        12
    50.5400        14
    50.5600        28
    50.5800        26
    50.6000        16
    50.6200        16
    50.6400        30
    50.6600        22
    50.6800        20
    50.7000        26
    50.7200        14
    50.7400        18
    50.7600        14
    50.7800        22
    50.8000        22
    50.8200        22
    50.8400        18
    50.8600        22
    50.8800        16
    50.9000        28
    50.9200        20
    50.9400        22
    50.9600        22
    50.9800        12
    51.0000        16
    51.0200        24
    51.0400        28
    51.0600        22
    51.0800        22
    51.1000        20
    51.1200        18
    51.1400        24
    51.1600        20
    51.1800        20
    51.2000        26
    51.2200        20
    51.2400        20
    51.2600        10
    51.2800        26
    51.3000        18
    51.3200        20
    51.3400        18
    51.3600        16
    51.3800        18
    51.4000        26
    51.4200        22
    51.4400        18
    51.4600        16
    51.4800        24
    51.5000        24
    51.5200        20
    51.5400        16
    51.5600        26
    51.5800        18
    51.6000        18
    51.6200        16
    51.6400        24
    51.6600        22
    51.6800        20
    51.7000        26
    51.7200        20
    51.7400        16
    51.7600        26
    51.7800        10
    51.8000        20
    51.8200        22
    51.8400        24
    51.8600        22
    51.8800        20
    51.9000        26
    51.9200        20
    51.9400        18
    51.9600        18
    51.9800        12
    52.0000        18
    52.0200        24
    52.0400        26
    52.0600        20
    52.0800        24
    52.1000        16
    52.1200        12
    52.1400        12
    52.1600        22
    52.1800        20
    52.2000        14
    52.2200        20
    52.2400        14
    52.2600        16
    52.2800        26
    52.3000        24
    52.3200        14
    52.3400        20
    52.3600        16
    52.3800        18
    52.4000        16
    52.4200        22
    52.4400        20
    52.4600        20
    52.4800        16
    52.5000        16
    52.5200        22
    52.5400        10
    52.5600        18
    52.5800        14
    52.6000        16
    52.6200        22
    52.6400        26
    52.6600        20
    52.6800        22
    52.7000        22
    52.7200        22
    52.7400        22
    52.7600        16
    52.7800        20
    52.8000        22
    52.8200        18
    52.8400        16
    52.8600        18
    52.8800        16
    52.9000        16
    52.9200        18
    52.9400        22
    52.9600        16
    52.9800        26
    53.0000        20
    53.0200        28
    53.0400        26
    53.0600        24
    53.0800        22
    53.1000        28
    53.1200        14
    53.1400        16
    53.1600        24
    53.1800        12
    53.2000        14
    53.2200        18
    53.2400        20
    53.2600        18
    53.2800        16
    53.3000        14
    53.3200        28
    53.3400        28
    53.3600        18
    53.3800        18
    53.4000        16
    53.4200        22
    53.4400        20
    53.4600        22
    53.4800        20
    53.5000        24
    53.5200        22
    53.5400        16
    53.5600        20
    53.5800        16
    53.6000        16
    53.6200        24
    53.6400        16
    53.6600        22
    53.6800        20
    53.7000        22
    53.7200        18
    53.7400        24
    53.7600        26
    53.7800        22
    53.8000        18
    53.8200        16
    53.8400        18
    53.8600        20
    53.8800        18
    53.9000        22
    53.9200        18
    53.9400        24
    53.9600        14
    53.9800        26
    54.0000        24
    54.0200        14
    54.0400        18
    54.0600        20
    54.0800        16
    54.1000        16
    54.1200        22
    54.1400        16
    54.1600        10
    54.1800        18
    54.2000        16
    54.2200        14
    54.2400        12
    54.2600        24
    54.2800        26
    54.3000        16
    54.3200        24
    54.3400        28
    54.3600        24
    54.3800        24
    54.4000        32
    54.4200        26
    54.4400        22
    54.4600        12
    54.4800        16
    54.5000        10
    54.5200        18
    54.5400        22
    54.5600        20
    54.5800        24
    54.6000        26
    54.6200        16
    54.6400        22
    54.6600        12
    54.6800        20
    54.7000        18
    54.7200        20
    54.7400        30
    54.7600        18
    54.7800        18
    54.8000        40
    54.8200        28
    54.8400        22
    54.8600        16
    54.8800        18
    54.9000        18
    54.9200        22
    54.9400        18
    54.9600        22
    54.9800        18
    55.0000        14
    55.0200        20
    55.0400        22
    55.0600        16
    55.0800        16
    55.1000        18
    55.1200        16
    55.1400        12
    55.1600        18
    55.1800        18
    55.2000        12
    55.2200        18
    55.2400        22
    55.2600         6
    55.2800        12
    55.3000        14
    55.3200        16
    55.3400        14
    55.3600        14
    55.3800        22
    55.4000        22
    55.4200        18
    55.4400        12
    55.4600        12
    55.4800        16
    55.5000        20
    55.5200        22
    55.5400        14
    55.5600        22
    55.5800        20
    55.6000        20
    55.6200         8
    55.6400        14
    55.6600        16
    55.6800        18
    55.7000        22
    55.7200        20
    55.7400        22
    55.7600        18
    55.7800        16
    55.8000        12
    55.8200        26
    55.8400        16
    55.8600         8
    55.8800        12
    55.9000        14
    55.9200        16
    55.9400        10
    55.9600        20
    55.9800        14
    56.0000        14
    56.0200        18
    56.0400        20
    56.0600        20
    56.0800        22
    56.1000        12
    56.1200         8
    56.1400        18
    56.1600        12
    56.1800        24
    56.2000        16
    56.2200        16
    56.2400        26
    56.2600        20
    56.2800        20
    56.3000        18
    56.3200        14
    56.3400        20
    56.3600        20
    56.3800        22
    56.4000        18
    56.4200        16
    56.4400        22
    56.4600        20
    56.4800        22
    56.5000        10
    56.5200        16
    56.5400        20
    56.5600        24
    56.5800        24
    56.6000        20
    56.6200        22
    56.6400        18
    56.6600        16
    56.6800        22
    56.7000        18
    56.7200        18
    56.7400        18
    56.7600        18
    56.7800        20
    56.8000        24
    56.8200        32
    56.8400        16
    56.8600        20
    56.8800        12
    56.9000        20
    56.9200        28
    56.9400        24
    56.9600        14
    56.9800        34
    57.0000        26
    57.0200        22
    57.0400        26
    57.0600        22
    57.0800        18
    57.1000        18
    57.1200        26
    57.1400        18
    57.1600        22
    57.1800        20
    57.2000        16
    57.2200         8
    57.2400        22
    57.2600        20
    57.2800        16
    57.3000        32
    57.3200        20
    57.3400        18
    57.3600        16
    57.3800        22
    57.4000        20
    57.4200        24
    57.4400        18
    57.4600        24
    57.4800        20
    57.5000        24
    57.5200        12
    57.5400        26
    57.5600        16
    57.5800        18
    57.6000        20
    57.6200        26
    57.6400        16
    57.6600        12
    57.6800        20
    57.7000        16
    57.7200        22
    57.7400        18
    57.7600        14
    57.7800        18
    57.8000        16
    57.8200        20
    57.8400         8
    57.8600        16
    57.8800        20
    57.9000        16
    57.9200        10
    57.9400        22
    57.9600        16
    57.9800        18
    58.0000        14
    58.0200         6
    58.0400        16
    58.0600        14
    58.0800        12
    58.1000        18
    58.1200        10
    58.1400        26
    58.1600        14
    58.1800        12
    58.2000        18
    58.2200        18
    58.2400        20
    58.2600        18
    58.2800        12
    58.3000        16
    58.3200        18
    58.3400        12
    58.3600        12
    58.3800        14
    58.4000        14
    58.4200        10
    58.4400        10
    58.4600        12
    58.4800        10
    58.5000        14
    58.5200        14
    58.5400        14
    58.5600        14
    58.5800        14
    58.6000        16
    58.6200        10
    58.6400        20
    58.6600        14
    58.6800        10
    58.7000        14
    58.7200        12
    58.7400        14
    58.7600        16
    58.7800        16
    58.8000        18
    58.8200        14
    58.8400        14
    58.8600        12
    58.8800        14
    58.9000        20
    58.9200        14
    58.9400        22
    58.9600        12
    58.9800        18
    59.0000        12
    59.0200        22
    59.0400        12
    59.0600        24
    59.0800        16
    59.1000        18
    59.1200        20
    59.1400        10
    59.1600        14
    59.1800        18
    59.2000        12
    59.2200        10
    59.2400        10
    59.2600        12
    59.2800        18
    59.3000        16
    59.3200        12
    59.3400        20
    59.3600        10
    59.3800        18
    59.4000         8
    59.4200        12
    59.4400        12
    59.4600        16
    59.4800        14
    59.5000        22
    59.5200        24
    59.5400        14
    59.5600         8
    59.5800        22
    59.6000        16
    59.6200        18
    59.6400        16
    59.6600        24
    59.6800        12
    59.7000        14
    59.7200         8
    59.7400        14
    59.7600        12
    59.7800        14
    59.8000        14
    59.8200         8
    59.8400        18
    59.8600        22
    59.8800        14
    59.9000        18
    59.9200        12
    59.9400        10
    59.9600        10
    59.9800        24
    60.0000        18
    60.0200        14
    60.0400        18
    60.0600        14
    60.0800        16
    60.1000        12
    60.1200        14
    60.1400         8
    60.1600        12
    60.1800        20
    60.2000        20
    60.2200        24
    60.2400        22
    60.2600        14
    60.2800        14
    60.3000        14
    60.3200        14
    60.3400        20
    60.3600         8
    60.3800        20
    60.4000        18
    60.4200        16
    60.4400        14
    60.4600         8
    60.4800        18
    60.5000         6
    60.5200        16
    60.5400        20
    60.5600        16
    60.5800        18
    60.6000        16
    60.6200        12
    60.6400        14
    60.6600        16
    60.6800        14
    60.7000        18
    60.7200        18
    60.7400        16
    60.7600        16
    60.7800        20
    60.8000        16
    60.8200        18
    60.8400        18
    60.8600        18
    60.8800        20
    60.9000        18
    60.9200        10
    60.9400        14
    60.9600        14
    60.9800        14
    61.0000        18
    61.0200        16
    61.0400        12
    61.0600        12
    61.0800        16
    61.1000        14
    61.1200        16
    61.1400        14
    61.1600        14
    61.1800        16
    61.2000        14
    61.2200        18
    61.2400        12
    61.2600        16
    61.2800        16
    61.3000        22
    61.3200        16
    61.3400        16
    61.3600        10
    61.3800        20
    61.4000        18
    61.4200        14
    61.4400        20
    61.4600         8
    61.4800        16
    61.5000        18
    61.5200         8
    61.5400        16
    61.5600        16
    61.5800        14
    61.6000        14
    61.6200        14
    61.6400        14
    61.6600         8
    61.6800        20
    61.7000         8
    61.7200        20
    61.7400        18
    61.7600        12
    61.7800        12
    61.8000        14
    61.8200        18
    61.8400        20
    61.8600        12
    61.8800        12
    61.9000        18
    61.9200        18
    61.9400        10
    61.9600        16
    61.9800        16
    62.0000        14
    62.0200        12
    62.0400        12
    62.0600        24
    62.0800        18
    62.1000        20
    62.1200        22
    62.1400        26
    62.1600        18
    62.1800        14
    62.2000        16
    62.2200        20
    62.2400        20
    62.2600        18
    62.2800        22
    62.3000        26
    62.3200        26
    62.3400        20
    62.3600        24
    62.3800        18
    62.4000        26
    62.4200        16
    62.4400        24
    62.4600        32
    62.4800        24
    62.5000        18
    62.5200        24
    62.5400        20
    62.5600        24
    62.5800        26
    62.6000        26
    62.6200        18
    62.6400        22
    62.6600        12
    62.6800        14
    62.7000        26
    62.7200        24
    62.7400        22
    62.7600        22
    62.7800        20
    62.8000        22
    62.8200        16
    62.8400        12
    62.8600        20
    62.8800        12
    62.9000        20
    62.9200        18
    62.9400        10
    62.9600        16
    62.9800        16
    63.0000        14
    63.0200        20
    63.0400        16
    63.0600        14
    63.0800        14
    63.1000        12
    63.1200        20
    63.1400         8
    63.1600        14
    63.1800        18
    63.2000        18
    63.2200        18
    63.2400        16
    63.2600        22
    63.2800        14
    63.3000        20
    63.3200        18
    63.3400        16
    63.3600        18
    63.3800        20
    63.4000        12
    63.4200        12
    63.4400        16
    63.4600        16
    63.4800        18
    63.5000        18
    63.5200        14
    63.5400        18
    63.5600        18
    63.5800         8
    63.6000        10
    63.6200        12
    63.6400        20
    63.6600        12
    63.6800         6
    63.7000        12
    63.7200         8
    63.7400        18
    63.7600        16
    63.7800        12
    63.8000        10
    63.8200        12
    63.8400        16
    63.8600        12
    63.8800        22
    63.9000        14
    63.9200        16
    63.9400        14
    63.9600        18
    63.9800        16
    64.0000        16
    64.0200        12
    64.0400        12
    64.0600        22
    64.0800        18
    64.1000         8
    64.1200        16
    64.1400        16
    64.1600        14
    64.1800        14
    64.2000        14
    64.2200         8
    64.2400        22
    64.2600        14
    64.2800        12
    64.3000        14
    64.3200        18
    64.3400        20
    64.3600        18
    64.3800        24
    64.4000        20
    64.4200        24
    64.4400        14
    64.4600        16
    64.4800        12
    64.5000        14
    64.5200        20
    64.5400         6
    64.5600        12
    64.5800        16
    64.6000        16
    64.6200        20
    64.6400        24
    64.6600        12
    64.6800        12
    64.7000        12
    64.7200        10
    64.7400        20
    64.7600        12
    64.7800        12
    64.8000        12
    64.8200        16
    64.8400        14
    64.8600        12
    64.8800        18
    64.9000        14
    64.9200        12
    64.9400        12
    64.9600        12
    64.9800        14
    65.0000        18
    65.0200        10
    65.0400         8
    65.0600         4
    65.0800        12
    65.1000        14
    65.1200        20
    65.1400        14
    65.1600        10
    65.1800        16
    65.2000        12
    65.2200        12
    65.2400        14
    65.2600        16
    65.2800        10
    65.3000        14
    65.3200        10
    65.3400        10
    65.3600        10
    65.3800         6
    65.4000        18
    65.4200        16
    65.4400        16
    65.4600         8
    65.4800        10
    65.5000        14
    65.5200         8
    65.5400        14
    65.5600        22
    65.5800        12
    65.6000        14
    65.6200        16
    65.6400        24
    65.6600         6
    65.6800        16
    65.7000        16
    65.7200        10
    65.7400        14
    65.7600        16
    65.7800         8
    65.8000        16
    65.8200        12
    65.8400        18
    65.8600        18
    65.8800        16
    65.9000        12
    65.9200        14
    65.9400        16
    65.9600        18
    65.9800        22
    66.0000        12
    66.0200        16
    66.0400        10
    66.0600        14
    66.0800        18
    66.1000        12
    66.1200        18
    66.1400        14
    66.1600        20
    66.1800        14
    66.2000        16
    66.2200        10
    66.2400        10
    66.2600        12
    66.2800        16
    66.3000        10
    66.3200         8
    66.3400        16
    66.3600         6
    66.3800        10
    66.4000        12
    66.4200        18
    66.4400        18
    66.4600        12
    66.4800        12
    66.5000        12
    66.5200         6
    66.5400        18
    66.5600        14
    66.5800         4
    66.6000         8
    66.6200         8
    66.6400        16
    66.6600        18
    66.6800        12
    66.7000        14
    66.7200        10
    66.7400        16
    66.7600        10
    66.7800        14
    66.8000        10
    66.8200         8
    66.8400        12
    66.8600        12
    66.8800        14
    66.9000        10
    66.9200        16
    66.9400        14
    66.9600        10
    66.9800        14
    67.0000        18
    67.0200        16
    67.0400        12
    67.0600        14
    67.0800        16
    67.1000        20
    67.1200        10
    67.1400        10
    67.1600         6
    67.1800        14
    67.2000        18
    67.2200        12
    67.2400         8
    67.2600        12
    67.2800        20
    67.3000        10
    67.3200         8
    67.3400        14
    67.3600        12
    67.3800        12
    67.4000        16
    67.4200         8
    67.4400        16
    67.4600         8
    67.4800        10
    67.5000        16
    67.5200        14
    67.5400        12
    67.5600        10
    67.5800        18
    67.6000        16
    67.6200        12
    67.6400         8
    67.6600        12
    67.6800         8
    67.7000         8
    67.7200        20
    67.7400        20
    67.7600        16
    67.7800        16
    67.8000        20
    67.8200        22
    67.8400        14
    67.8600        16
    67.8800        14
    67.9000        12
    67.9200        10
    67.9400        12
    67.9600        14
    67.9800        10
    68.0000        12
    68.0200        10
    68.0400        16
    68.0600        16
    68.0800        10
    68.1000        16
    68.1200        26
    68.1400        14
    68.1600        10
    68.1800        10
    68.2000        10
    68.2200        10
    68.2400        24
    68.2600        14
    68.2800        18
    68.3000        14
    68.3200        12
    68.3400        14
    68.3600        20
    68.3800        20
    68.4000        10
    68.4200        20
    68.4400        16
    68.4600        12
    68.4800        22
    68.5000        10
    68.5200        10
    68.5400        16
    68.5600        18
    68.5800        12
    68.6000        12
    68.6200         8
    68.6400        18
    68.6600        12
    68.6800        14
    68.7000        14
    68.7200         4
    68.7400        16
    68.7600        20
    68.7800        10
    68.8000        18
    68.8200        14
    68.8400        14
    68.8600        10
    68.8800         6
    68.9000        16
    68.9200        16
    68.9400        18
    68.9600        10
    68.9800        14
    69.0000        12
    69.0200         8
    69.0400        16
    69.0600        16
    69.0800        16
    69.1000        12
    69.1200         6
    69.1400        10
    69.1600        10
    69.1800         8
    69.2000        12
    69.2200        10
    69.2400        14
    69.2600        22
    69.2800        14
    69.3000        12
    69.3200        16
    69.3400        24
    69.3600        16
    69.3800         6
    69.4000        14
    69.4200        14
    69.4400        14
    69.4600        12
    69.4800        12
    69.5000        22
    69.5200        10
    69.5400        16
    69.5600        12
    69.5800        16
    69.6000        12
    69.6200        14
    69.6400         8
    69.6600        10
    69.6800        14
    69.7000        10
    69.7200        16
    69.7400        12
    69.7600        12
    69.7800        14
    69.8000         8
    69.8200        10
    69.8400        14
    69.8600        20
    69.8800        14
    69.9000        18
    69.9200        10
    69.9400        18
    69.9600         4
    69.9800        16
    70.0000        10
    70.0200        10
    70.0400        18
    70.0600         6
    70.0800        12
    70.1000        12
    70.1200        16
    70.1400        10
    70.1600        14
    70.1800         4
    70.2000        10
    70.2200        14
    70.2400        10
    70.2600        10
    70.2800        12
    70.3000        18
    70.3200         8
    70.3400        12
    70.3600        12
    70.3800        10
    70.4000        10
    70.4200        12
    70.4400        10
    70.4600        18
    70.4800        14
    70.5000        10
    70.5200         2
    70.5400         6
    70.5600        10
    70.5800        14
    70.6000        24
    70.6200        16
    70.6400        14
    70.6600        16
    70.6800        10
    70.7000        12
    70.7200        12
    70.7400        18
    70.7600        14
    70.7800        24
    70.8000        12
    70.8200        16
    70.8400        14
    70.8600        14
    70.8800        16
    70.9000        12
    70.9200        12
    70.9400        12
    70.9600        12
    70.9800        18
    71.0000        18
    71.0200        18
    71.0400        12
    71.0600        18
    71.0800        18
    71.1000        12
    71.1200        16
    71.1400        16
    71.1600        12
    71.1800        12
    71.2000        16
    71.2200        14
    71.2400         8
    71.2600        16
    71.2800        10
    71.3000        20
    71.3200        14
    71.3400        12
    71.3600        10
    71.3800        12
    71.4000        14
    71.4200        12
    71.4400        20
    71.4600        10
    71.4800        14
    71.5000        10
    71.5200        14
    71.5400        10
    71.5600        12
    71.5800        10
    71.6000        10
    71.6200        18
    71.6400        12
    71.6600         6
    71.6800        12
    71.7000        18
    71.7200        12
    71.7400         8
    71.7600        10
    71.7800        10
    71.8000        10
    71.8200         8
    71.8400        22
    71.8600        10
    71.8800        20
    71.9000        16
    71.9200        14
    71.9400        16
    71.9600         6
    71.9800        12
    72.0000        10
    72.0200        14
    72.0400        14
    72.0600        16
    72.0800        10
    72.1000        24
    72.1200        18
    72.1400        16
    72.1600        14
    72.1800        12
    72.2000         8
    72.2200        14
    72.2400        10
    72.2600        12
    72.2800        18
    72.3000         8
    72.3200        10
    72.3400        16
    72.3600        14
    72.3800         8
    72.4000        12
    72.4200        18
    72.4400        18
    72.4600        14
    72.4800         8
    72.5000         8
    72.5200         6
    72.5400        12
    72.5600        10
    72.5800        24
    72.6000        10
    72.6200         8
    72.6400         8
    72.6600        12
    72.6800         6
    72.7000        20
    72.7200        14
    72.7400        10
    72.7600        12
    72.7800        14
    72.8000        10
    72.8200        12
    72.8400        14
    72.8600        14
    72.8800         6
    72.9000         4
    72.9200        14
    72.9400         8
    72.9600        14
    72.9800         8
    73.0000        18
    73.0200        12
    73.0400        20
    73.0600         4
    73.0800        16
    73.1000        14
    73.1200        16
    73.1400        14
    73.1600         8
    73.1800        18
    73.2000         6
    73.2200        14
    73.2400        16
    73.2600         8
    73.2800        12
    73.3000        12
    73.3200        18
    73.3400        18
    73.3600        12
    73.3800        10
    73.4000        10
    73.4200        14
    73.4400         8
    73.4600        14
    73.4800         8
    73.5000         8
    73.5200        16
    73.5400        16
    73.5600        18
    73.5800        10
    73.6000        16
    73.6200        10
    73.6400        16
    73.6600        18
    73.6800        18
    73.7000        16
    73.7200        12
    73.7400         8
    73.7600        12
    73.7800        26
    73.8000        10
    73.8200        16
    73.8400        18
    73.8600        12
    73.8800        20
    73.9000        16
    73.9200        14
    73.9400        14
    73.9600        12
    73.9800        14
    74.0000        18
    74.0200        18
    74.0400        12
    74.0600        14
    74.0800        18
    74.1000        14
    74.1200         8
    74.1400        16
    74.1600         8
    74.1800        22
    74.2000         6
    74.2200        12
    74.2400        16
    74.2600        20
    74.2800        16
    74.3000        14
    74.3200         8
    74.3400        20
    74.3600         8
    74.3800        18
    74.4000        14
    74.4200        14
    74.4400        16
    74.4600        10
    74.4800        12
    74.5000         8
    74.5200        10
    74.5400        12
    74.5600        10
    74.5800        10
    74.6000         8
    74.6200        14
    74.6400        24
    74.6600        12
    74.6800        12
    74.7000         8
    74.7200        18
    74.7400        16
    74.7600        16
    74.7800        14
    74.8000        12
    74.8200         8
    74.8400        14
    74.8600         8
    74.8800         8
    74.9000        12
    74.9200         4
    74.9400        18
    74.9600        10
    74.9800         8
    75.0000        16
    75.0200        10
    75.0400        10
    75.0600        14
    75.0800        18
    75.1000        24
    75.1200        10
    75.1400        10
    75.1600        12
    75.1800        14
    75.2000        14
    75.2200        16
    75.2400        14
    75.2600        14
    75.2800        16
    75.3000        10
    75.3200        20
    75.3400        12
    75.3600        16
    75.3800        16
    75.4000        10
    75.4200        10
    75.4400        10
    75.4600        10
    75.4800        16
    75.5000        12
    75.5200        16
    75.5400        24
    75.5600        10
    75.5800        16
    75.6000         8
    75.6200        18
    75.6400        14
    75.6600         8
    75.6800        10
    75.7000        16
    75.7200        18
    75.7400         8
    75.7600        18
    75.7800        10
    75.8000        18
    75.8200         6
    75.8400        16
    75.8600        18
    75.8800        14
    75.9000        14
    75.9200        12
    75.9400        14
    75.9600        16
    75.9800        10
    76.0000        14
    76.0200        10
    76.0400        18
    76.0600        10
    76.0800        10
    76.1000        16
    76.1200        10
    76.1400        16
    76.1600        16
    76.1800        12
    76.2000        18
    76.2200        10
    76.2400         8
    76.2600         8
    76.2800         6
    76.3000        12
    76.3200        10
    76.3400        14
    76.3600        18
    76.3800        12
    76.4000        12
    76.4200        12
    76.4400         8
    76.4600        16
    76.4800         8
    76.5000        12
    76.5200         8
    76.5400        10
    76.5600        10
    76.5800        16
    76.6000        12
    76.6200        10
    76.6400        10
    76.6600        16
    76.6800         6
    76.7000        14
    76.7200        10
    76.7400         8
    76.7600        12
    76.7800        14
    76.8000        14
    76.8200        12
    76.8400        18
    76.8600        14
    76.8800        14
    76.9000         4
    76.9200        10
    76.9400        16
    76.9600        16
    76.9800        16
    77.0000        10
    77.0200        14
    77.0400        16
    77.0600        14
    77.0800        16
    77.1000        10
    77.1200        14
    77.1400        12
    77.1600         8
    77.1800        10
    77.2000        16
    77.2200        14
    77.2400        16
    77.2600        10
    77.2800        16
    77.3000        10
    77.3200        12
    77.3400        12
    77.3600        10
    77.3800        16
    77.4000        22
    77.4200        16
    77.4400        16
    77.4600        18
    77.4800        14
    77.5000        20
    77.5200        12
    77.5400        14
    77.5600        16
    77.5800        12
    77.6000        14
    77.6200        16
    77.6400        22
    77.6600        20
    77.6800         6
    77.7000        18
    77.7200        14
    77.7400        16
    77.7600        14
    77.7800        14
    77.8000        14
    77.8200        20
    77.8400        16
    77.8600        12
    77.8800        10
    77.9000        12
    77.9200        10
    77.9400        10
    77.9600        22
    77.9800        12
    78.0000        12
    78.0200        12
    78.0400        12
    78.0600        10
    78.0800        14
    78.1000        18
    78.1200        10
    78.1400        16
    78.1600        12
    78.1800        12
    78.2000        12
    78.2200         8
    78.2400         8
    78.2600        10
    78.2800        12
    78.3000        18
    78.3200         8
    78.3400        12
    78.3600        10
    78.3800         8
    78.4000         8
    78.4200        12
    78.4400        14
    78.4600        10
    78.4800        14
    78.5000        12
    78.5200        10
    78.5400        14
    78.5600        10
    78.5800        16
    78.6000        12
    78.6200        14
    78.6400        14
    78.6600         6
    78.6800        12
    78.7000        10
    78.7200        16
    78.7400        10
    78.7600        16
    78.7800        12
    78.8000        12
    78.8200        16
    78.8400         8
    78.8600        14
    78.8800        14
    78.9000        12
    78.9200        14
    78.9400        16
    78.9600        18
    78.9800        12
    79.0000        18
    79.0200        10
    79.0400         8
    79.0600        12
    79.0800        12
    79.1000         8
    79.1200        10
    79.1400        14
    79.1600        12
    79.1800        12
    79.2000        14
    79.2200        18
    79.2400        16
    79.2600        12
    79.2800        20
    79.3000        14
    79.3200        10
    79.3400        12
    79.3600        10
    79.3800         8
    79.4000        14
    79.4200        12
    79.4400        14
    79.4600        10
    79.4800        10
    79.5000        10
    79.5200         8
    79.5400        18
    79.5600        12
    79.5800         6
    79.6000        22
    79.6200        16
    79.6400         8
    79.6600         8
    79.6800        10
    79.7000        10
    79.7200        14
    79.7400        14
    79.7600        12
    79.7800         8
    79.8000        14
    79.8200         8
    79.8400        12
    79.8600        10
    79.8800         8
    79.9000        14
    79.9200         6
    79.9400         8
    79.9600        14
    79.9800        10
    80.0000        12
    80.0200         4
    80.0400        12
    80.0600         8
    80.0800         8
    80.1000         8
    80.1200        12
    80.1400        14
    80.1600        14
    80.1800        18
    80.2000         8
    80.2200        12
    80.2400        14
    80.2600        12
    80.2800         8
    80.3000        12
    80.3200        14
    80.3400        10
    80.3600        10
    80.3800        12
    80.4000        16
    80.4200         6
    80.4400        14
    80.4600        12
    80.4800        12
    80.5000        12
    80.5200        16
    80.5400        18
    80.5600         8
    80.5800         8
    80.6000        12
    80.6200         8
    80.6400        10
    80.6600        12
    80.6800        12
    80.7000         6
    80.7200         4
    80.7400        20
    80.7600         6
    80.7800        12
    80.8000        14
    80.8200         8
    80.8400        16
    80.8600        18
    80.8800         8
    80.9000        16
    80.9200        16
    80.9400        12
    80.9600        12
    80.9800        14
    81.0000        14
    81.0200        10
    81.0400        10
    81.0600         8
    81.0800        14
    81.1000        14
    81.1200        14
    81.1400        24
    81.1600        16
    81.1800        10
    81.2000        20
    81.2200        10
    81.2400        12
    81.2600        14
    81.2800        10
    81.3000        10
    81.3200        10
    81.3400         6
    81.3600         8
    81.3800        12
    81.4000        10
    81.4200        18
    81.4400        14
    81.4600        12
    81.4800         8
    81.5000        16
    81.5200         8
    81.5400         8
    81.5600        10
    81.5800        16
    81.6000        12
    81.6200        12
    81.6400        10
    81.6600         6
    81.6800        14
    81.7000        10
    81.7200        14
    81.7400        14
    81.7600        12
    81.7800        18
    81.8000         6
    81.8200        14
    81.8400         8
    81.8600        10
    81.8800        12
    81.9000         8
    81.9200        14
    81.9400        12
    81.9600         8
    81.9800        10
    82.0000        16
    82.0200        16
    82.0400        12
    82.0600        14
    82.0800        10
    82.1000         6
    82.1200         4
    82.1400        10
    82.1600        16
    82.1800        10
    82.2000        16
    82.2200        12
    82.2400        16
    82.2600        10
    82.2800         4
    82.3000        10
    82.3200        10
    82.3400        14
    82.3600        14
    82.3800         6
    82.4000        18
    82.4200        14
    82.4400         6
    82.4600        12
    82.4800        18
    82.5000        10
    82.5200        10
    82.5400        14
    82.5600         8
    82.5800        12
    82.6000        10
    82.6200        10
    82.6400        18
    82.6600        12
    82.6800         8
    82.7000        18
    82.7200        16
    82.7400        12
    82.7600        14
    82.7800        10
    82.8000         8
    82.8200        12
    82.8400        10
    82.8600        18
    82.8800        16
    82.9000         8
    82.9200        20
    82.9400        14
    82.9600         8
    82.9800        14
    83.0000        12
    83.0200         8
    83.0400         8
    83.0600        14
    83.0800         6
    83.1000        16
    83.1200        12
    83.1400        10
    83.1600        16
    83.1800        10
    83.2000        14
    83.2200        10
    83.2400        10
    83.2600         8
    83.2800        20
    83.3000         8
    83.3200        16
    83.3400        10
    83.3600        10
    83.3800        14
    83.4000        12
    83.4200        16
    83.4400         8
    83.4600        12
    83.4800         8
    83.5000        10
    83.5200        14
    83.5400         6
    83.5600        14
    83.5800        14
    83.6000        12
    83.6200        10
    83.6400        12
    83.6600        10
    83.6800        18
    83.7000        16
    83.7200        10
    83.7400        14
    83.7600        10
    83.7800         8
    83.8000        10
    83.8200        10
    83.8400        14
    83.8600        14
    83.8800         6
    83.9000        10
    83.9200        12
    83.9400        14
    83.9600        12
    83.9800        10
    84.0000        12
    84.0200        10
    84.0400        14
    84.0600         6
    84.0800        10
    84.1000        12
    84.1200        10
    84.1400        10
    84.1600        10
    84.1800        10
    84.2000        12
    84.2200        12
    84.2400        14
    84.2600        10
    84.2800        14
    84.3000        14
    84.3200        10
    84.3400         8
    84.3600         8
    84.3800        10
    84.4000        12
    84.4200        12
    84.4400        12
    84.4600        10
    84.4800        12
    84.5000        10
    84.5200        16
    84.5400        16
    84.5600        20
    84.5800        10
    84.6000        16
    84.6200         8
    84.6400         6
    84.6600         8
    84.6800        10
    84.7000        12
    84.7200        12
    84.7400        18
    84.7600        14
    84.7800         8
    84.8000         8
    84.8200        10
    84.8400        14
    84.8600         4
    84.8800        12
    84.9000        12
    84.9200         4
    84.9400        16
    84.9600         8
    84.9800        10
    85.0000        22
    85.0200        12
    85.0400        10
    85.0600        12
    85.0800        14
    85.1000        12
    85.1200        12
    85.1400         8
    85.1600        12
    85.1800        14
    85.2000        12
    85.2200         8
    85.2400        14
    85.2600        12
    85.2800        12
    85.3000        10
    85.3200        18
    85.3400         8
    85.3600         6
    85.3800        12
    85.4000        18
    85.4200         8
    85.4400        14
    85.4600         8
    85.4800        14
    85.5000        14
    85.5200         6
    85.5400        10
    85.5600        18
    85.5800        12
    85.6000         8
    85.6200         6
    85.6400        12
    85.6600         8
    85.6800        16
    85.7000        12
    85.7200        12
    85.7400        10
    85.7600        16
    85.7800        12
    85.8000        14
    85.8200        12
    85.8400        10
    85.8600        16
    85.8800         8
    85.9000        18
    85.9200         6
    85.9400         6
    85.9600        12
    85.9800         8
    86.0000        16
    86.0200        10
    86.0400        12
    86.0600         8
    86.0800        10
    86.1000         8
    86.1200        14
    86.1400        14
    86.1600         6
    86.1800         8
    86.2000        10
    86.2200        10
    86.2400         8
    86.2600        10
    86.2800        10
    86.3000        20
    86.3200        14
    86.3400        10
    86.3600        16
    86.3800         6
    86.4000        12
    86.4200        16
    86.4400        14
    86.4600         8
    86.4800        20
    86.5000        10
    86.5200        14
    86.5400        14
    86.5600        14
    86.5800        12
    86.6000        10
    86.6200        18
    86.6400        14
    86.6600        10
    86.6800        18
    86.7000        16
    86.7200        14
    86.7400         6
    86.7600        12
    86.7800        12
    86.8000         6
    86.8200        10
    86.8400        14
    86.8600        18
    86.8800        10
    86.9000        10
    86.9200        10
    86.9400         6
    86.9600        16
    86.9800        12
    87.0000        12
    87.0200        10
    87.0400        10
    87.0600         8
    87.0800         6
    87.1000         8
    87.1200        12
    87.1400        12
    87.1600         4
    87.1800        12
    87.2000        14
    87.2200        10
    87.2400        12
    87.2600         4
    87.2800         6
    87.3000        12
    87.3200        10
    87.3400         6
    87.3600         8
    87.3800        10
    87.4000         6
    87.4200        20
    87.4400         4
    87.4600         8
    87.4800         6
    87.5000        18
    87.5200        12
    87.5400         8
    87.5600         8
    87.5800        18
    87.6000        10
    87.6200         8
    87.6400         6
    87.6600         6
    87.6800        10
    87.7000         8
    87.7200        10
    87.7400        10
    87.7600        12
    87.7800         4
    87.8000        18
    87.8200        12
    87.8400        12
    87.8600         8
    87.8800        16
    87.9000        18
    87.9200        20
    87.9400        12
    87.9600        14
    87.9800        14
    88.0000        14
    88.0200        12
    88.0400        14
    88.0600        12
    88.0800         4
    88.1000        10
    88.1200        10
    88.1400         8
    88.1600        14
    88.1800         6
    88.2000         8
    88.2200        14
    88.2400        12
    88.2600        10
    88.2800        14
    88.3000        14
    88.3200        14
    88.3400         8
    88.3600        18
    88.3800        14
    88.4000        12
    88.4200         8
    88.4400        10
    88.4600        14
    88.4800         8
    88.5000        10
    88.5200         8
    88.5400        14
    88.5600         8
    88.5800        20
    88.6000         4
    88.6200        16
    88.6400         8
    88.6600        12
    88.6800        12
    88.7000        16
    88.7200        14
    88.7400        14
    88.7600        12
    88.7800        10
    88.8000         8
    88.8200        12
    88.8400        10
    88.8600         8
    88.8800         8
    88.9000         4
    88.9200        14
    88.9400        12
    88.9600         6
    88.9800        14
    89.0000        18
    89.0200        10
    89.0400        16
    89.0600         6
    89.0800        20
    89.1000        12
    89.1200         8
    89.1400         8
    89.1600        12
    89.1800         8
    89.2000        12
    89.2200        12
    89.2400        12
    89.2600        10
    89.2800         8
    89.3000        12
    89.3200        16
    89.3400        10
    89.3600         8
    89.3800        14
    89.4000        10
    89.4200        10
    89.4400        28
    89.4600        12
    89.4800        14
    89.5000        16
    89.5200         6
    89.5400        12
    89.5600        14
    89.5800        18
    89.6000        12
    89.6200        18
    89.6400        20
    89.6600        20
    89.6800        14
    89.7000        20
    89.7200        12
    89.7400        12
    89.7600        14
    89.7800        12
    89.8000         8
    89.8200        10
    89.8400        14
    89.8600        16
    89.8800        14
    89.9000        10
    89.9200        18
    89.9400        10
    89.9600         2
    89.9800        10
    90.0000        16
    90.0200        16
    90.0400        12
    90.0600         6
    90.0800         6
    90.1000         8
    90.1200         8
    90.1400        16
    90.1600         6
    90.1800        12
    90.2000        12
    90.2200         6
    90.2400        14
    90.2600        12
    90.2800        10
    90.3000        14
    90.3200         8
    90.3400        14
    90.3600        10
    90.3800        12
    90.4000        16
    90.4200        12
    90.4400         8
    90.4600        16
    90.4800        12
    90.5000        12
    90.5200         8
    90.5400        10
    90.5600        14
    90.5800        14
    90.6000        10
    90.6200        14
    90.6400        12
    90.6600        12
    90.6800        14
    90.7000         8
    90.7200        14
    90.7400        12
    90.7600         8
    90.7800        12
    90.8000         8
    90.8200         8
    90.8400        10
    90.8600        12
    90.8800        14
    90.9000         8
    90.9200        14
    90.9400        10
    90.9600        12
    90.9800        12
    91.0000        14
    91.0200         8
    91.0400        10
    91.0600         4
    91.0800         4
    91.1000        14
    91.1200        10
    91.1400        14
    91.1600         6
    91.1800        16
    91.2000        14
    91.2200        14
    91.2400         6
    91.2600         8
    91.2800        16
    91.3000        16
    91.3200         8
    91.3400        14
    91.3600        12
    91.3800         2
    91.4000        12
    91.4200         4
    91.4400         2
    91.4600        16
    91.4800         6
    91.5000        10
    91.5200        14
    91.5400        10
    91.5600         8
    91.5800        12
    91.6000         6
    91.6200        16
    91.6400        10
    91.6600         8
    91.6800        10
    91.7000        14
    91.7200         8
    91.7400        12
    91.7600        10
    91.7800         6
    91.8000        12
    91.8200         8
    91.8400         6
    91.8600        14
    91.8800        10
    91.9000         8
    91.9200         6
    91.9400         8
    91.9600         8
    91.9800         8
    92.0000         6
    92.0200        10
    92.0400         8
    92.0600        10
    92.0800         8
    92.1000        12
    92.1200         8
    92.1400         8
    92.1600        12
    92.1800        10
    92.2000        10
    92.2200         6
    92.2400         8
    92.2600         8
    92.2800         8
    92.3000        12
    92.3200        10
    92.3400        10
    92.3600         8
    92.3800        10
    92.4000        10
    92.4200         6
    92.4400        12
    92.4600        10
    92.4800        12
    92.5000        10
    92.5200        10
    92.5400        12
    92.5600        14
    92.5800        12
    92.6000         4
    92.6200        10
    92.6400        12
    92.6600        10
    92.6800        10
    92.7000        10
    92.7200        10
    92.7400        12
    92.7600        14
    92.7800        10
    92.8000         6
    92.8200         8
    92.8400        10
    92.8600         8
    92.8800         6
    92.9000         6
    92.9200         8
    92.9400        10
    92.9600        12
    92.9800         6
    93.0000        10
    93.0200        16
    93.0400        10
    93.0600        12
    93.0800         6
    93.1000        12
    93.1200        12
    93.1400        14
    93.1600         4
    93.1800         8
    93.2000        12
    93.2200        10
    93.2400        10
    93.2600        10
    93.2800         8
    93.3000        10
    93.3200        10
    93.3400        16
    93.3600        10
    93.3800        12
    93.4000        16
    93.4200        10
    93.4400        12
    93.4600         8
    93.4800        12
    93.5000        10
    93.5200         8
    93.5400        10
    93.5600        12
    93.5800         6
    93.6000        14
    93.6200        14
    93.6400        10
    93.6600        12
    93.6800        10
    93.7000        10
    93.7200        12
    93.7400         8
    93.7600        16
    93.7800        12
    93.8000        10
    93.8200        12
    93.8400        18
    93.8600        14
    93.8800         8
    93.9000        10
    93.9200        12
    93.9400         6
    93.9600         8
    93.9800         6
    94.0000        12
    94.0200        16
    94.0400         8
    94.0600         6
    94.0800        10
    94.1000         8
    94.1200        18
    94.1400        10
    94.1600        12
    94.1800        10
    94.2000        14
    94.2200        12
    94.2400         4
    94.2600        10
    94.2800        10
    94.3000        14
    94.3200        12
    94.3400        14
    94.3600        12
    94.3800        12
    94.4000         8
    94.4200        10
    94.4400        12
    94.4600        16
    94.4800        10
    94.5000        10
    94.5200         8
    94.5400        10
    94.5600         6
    94.5800        14
    94.6000         8
    94.6200         8
    94.6400         4
    94.6600        10
    94.6800         6
    94.7000         6
    94.7200        12
    94.7400        16
    94.7600         8
    94.7800        12
    94.8000        14
    94.8200         8
    94.8400        12
    94.8600        14
    94.8800        10
    94.9000        14
    94.9200        14
    94.9400        12
    94.9600        16
    94.9800        22
    95.0000        10
    95.0200        14
    95.0400         8
    95.0600         6
    95.0800        14
    95.1000        14
    95.1200        20
    95.1400        18
    95.1600        12
    95.1800         8
    95.2000         6
    95.2200        10
    95.2400        10
    95.2600         6
    95.2800         8
    95.3000        14
    95.3200        12
    95.3400         6
    95.3600         6
    95.3800         8
    95.4000        10
    95.4200         6
    95.4400         8
    95.4600         8
    95.4800        10
    95.5000         6
    95.5200        16
    95.5400        14
    95.5600         8
    95.5800        18
    95.6000        14
    95.6200         8
    95.6400         8
    95.6600        14
    95.6800         6
    95.7000        14
    95.7200         8
    95.7400        14
    95.7600        10
    95.7800        10
    95.8000         2
    95.8200        12
    95.8400        10
    95.8600        12
    95.8800        16
    95.9000        14
    95.9200        14
    95.9400        10
    95.9600        12
    95.9800         8
    96.0000         8
    96.0200        10
    96.0400         8
    96.0600         6
    96.0800        10
    96.1000         6
    96.1200         6
    96.1400        10
    96.1600         8
    96.1800        10
    96.2000         6
    96.2200         6
    96.2400         8
    96.2600         8
    96.2800        12
    96.3000        16
    96.3200        16
    96.3400         8
    96.3600        12
    96.3800        12
    96.4000         6
    96.4200         4
    96.4400        14
    96.4600         8
    96.4800        18
    96.5000        10
    96.5200        10
    96.5400         6
    96.5600        12
    96.5800         8
    96.6000         6
    96.6200        12
    96.6400        10
    96.6600        10
    96.6800        12
    96.7000         4
    96.7200         8
    96.7400        10
    96.7600         8
    96.7800        12
    96.8000        10
    96.8200        12
    96.8400         4
    96.8600         4
    96.8800        10
    96.9000         8
    96.9200        12
    96.9400         8
    96.9600        14
    96.9800         8
    97.0000        12
    97.0200        10
    97.0400        14
    97.0600         6
    97.0800         6
    97.1000        14
    97.1200         4
    97.1400         8
    97.1600         6
    97.1800         8
    97.2000         8
    97.2200         6
    97.2400        10
    97.2600         8
    97.2800        14
    97.3000        10
    97.3200         8
    97.3400         4
    97.3600        10
    97.3800        12
    97.4000         8
    97.4200         8
    97.4400        10
    97.4600        16
    97.4800        14
    97.5000        10
    97.5200        10
    97.5400         8
    97.5600        12
    97.5800         8
    97.6000        16
    97.6200        14
    97.6400        12
    97.6600        12
    97.6800        16
    97.7000         8
    97.7200         6
    97.7400        10
    97.7600        10
    97.7800        16
    97.8000         8
    97.8200        14
    97.8400        16
    97.8600        16
    97.8800        12
    97.9000        10
    97.9200         6
    97.9400        16
    97.9600        16
    97.9800        10
    98.0000        14
    98.0200        12
    98.0400        14
    98.0600         8
    98.0800        14
    98.1000        10
    98.1200        14
    98.1400         8
    98.1600        12
    98.1800        14
    98.2000        16
    98.2200        12
    98.2400        10
    98.2600        10
    98.2800        10
    98.3000        10
    98.3200        10
    98.3400        10
    98.3600        12
    98.3800         6
    98.4000         6
    98.4200         8
    98.4400        10
    98.4600         8
    98.4800         6
    98.5000        10
    98.5200        14
    98.5400        10
    98.5600        10
    98.5800         6
    98.6000        10
    98.6200         6
    98.6400        14
    98.6600        12
    98.6800         6
    98.7000        10
    98.7200        14
    98.7400         6
    98.7600        16
    98.7800         8
    98.8000        14
    98.8200        12
    98.8400         8
    98.8600        14
    98.8800         8
    98.9000         8
    98.9200         2
    98.9400         6
    98.9600        10
    98.9800        12
    99.0000        14
    99.0200         8
    99.0400        10
    99.0600        14
    99.0800        10
    99.1000         4
    99.1200        14
    99.1400        12
    99.1600        18
    99.1800        10
    99.2000         4
    99.2200         4
    99.2400         6
    99.2600        16
    99.2800         6
    99.3000        10
    99.3200        10
    99.3400        10
    99.3600        12
    99.3800         6
    99.4000        12
    99.4200         8
    99.4400        10
    99.4600         2
    99.4800        10
    99.5000         6
    99.5200        10
    99.5400         6
    99.5600         8
    99.5800         8
    99.6000        14
    99.6200        12
    99.6400        14
    99.6600         8
    99.6800         6
    99.7000        12
    99.7200         8
    99.7400         8
    99.7600        10
    99.7800         6
    99.8000         8
    99.8200         6
    99.8400         6
    99.8600        12
    99.8800         8
    99.9000         8
    99.9200         8
    99.9400        12
    99.9600         8
    99.9800         6
   100.0000         6
   100.0200         8
   100.0400         6
   100.0600         8
   100.0800        10
   100.1000         6
   100.1200         6
   100.1400        12
   100.1600         8
   100.1800        18
   100.2000        14
   100.2200        10
   100.2400         8
   100.2600        10
   100.2800         8
   100.3000        16
   100.3200        10
   100.3400        10
   100.3600        10
   100.3800        14
   100.4000        10
   100.4200        12
   100.4400        10
   100.4600        10
   100.4800         4
   100.5000         8
   100.5200         6
   100.5400         8
   100.5600        10
   100.5800        12
   100.6000         2
   100.6200         6
   100.6400        10
   100.6600        10
   100.6800         8
   100.7000         8
   100.7200         8
   100.7400        16
   100.7600         6
   100.7800         6
   100.8000         2
   100.8200         6
   100.8400         8
   100.8600         6
   100.8800         4
   100.9000         8
   100.9200         6
   100.9400         8
   100.9600        12
   100.9800        10
   101.0000         6
   101.0200         6
   101.0400         6
   101.0600        10
   101.0800         8
   101.1000        16
   101.1200         6
   101.1400        14
   101.1600         6
   101.1800         6
   101.2000         8
   101.2200        10
   101.2400        10
   101.2600         6
   101.2800         8
   101.3000        12
   101.3200         8
   101.3400         4
   101.3600         6
   101.3800         6
   101.4000        14
   101.4200         6
   101.4400         6
   101.4600         6
   101.4800         6
   101.5000         4
   101.5200        10
   101.5400         4
   101.5600        12
   101.5800         2
   101.6000         8
   101.6200        10
   101.6400         6
   101.6600        12
   101.6800        10
   101.7000         8
   101.7200        18
   101.7400        12
   101.7600        12
   101.7800         8
   101.8000         6
   101.8200        10
   101.8400         6
   101.8600        10
   101.8800         8
   101.9000         8
   101.9200         4
   101.9400         8
   101.9600         8
   101.9800        10
   102.0000        14
   102.0200         6
   102.0400         8
   102.0600        10
   102.0800         6
   102.1000         6
   102.1200        10
   102.1400         4
   102.1600        10
   102.1800        12
   102.2000        10
   102.2200         6
   102.2400         6
   102.2600         8
   102.2800         8
   102.3000        14
   102.3200         8
   102.3400        12
   102.3600        12
   102.3800        10
   102.4000         8
   102.4200         6
   102.4400         4
   102.4600        12
   102.4800        16
   102.5000        14
   102.5200         8
   102.5400        10
   102.5600        12
   102.5800         4
   102.6000        16
   102.6200        10
   102.6400        16
   102.6600         8
   102.6800         8
   102.7000         6
   102.7200        12
   102.7400        10
   102.7600         8
   102.7800         8
   102.8000        12
   102.8200         8
   102.8400         4
   102.8600         2
   102.8800        10
   102.9000         8
   102.9200        10
   102.9400         6
   102.9600        10
   102.9800         8
   103.0000         6
   103.0200         8
   103.0400        12
   103.0600         6
   103.0800        12
   103.1000        10
   103.1200         4
   103.1400        12
   103.1600         6
   103.1800         4
   103.2000        12
   103.2200        12
   103.2400         8
   103.2600        10
   103.2800         4
   103.3000        10
   103.3200         6
   103.3400        14
   103.3600        10
   103.3800        10
   103.4000        10
   103.4200        10
   103.4400        10
   103.4600         6
   103.4800         8
   103.5000         8
   103.5200        10
   103.5400         4
   103.5600        12
   103.5800         8
   103.6000         6
   103.6200         6
   103.6400         6
   103.6600        12
   103.6800        14
   103.7000        10
   103.7200        12
   103.7400        10
   103.7600         8
   103.7800         8
   103.8000        12
   103.8200         8
   103.8400        14
   103.8600        12
   103.8800        10
   103.9000         6
   103.9200        12
   103.9400        12
   103.9600        10
   103.9800         6
   104.0000         4
   104.0200         8
   104.0400        12
   104.0600         8
   104.0800        10
   104.1000        10
   104.1200         8
   104.1400        12
   104.1600        12
   104.1800         8
   104.2000        16
   104.2200         8
   104.2400        14
   104.2600        14
   104.2800         6
   104.3000        14
   104.3200         6
   104.3400        10
   104.3600        10
   104.3800         2
   104.4000         8
   104.4200         6
   104.4400        12
   104.4600        16
   104.4800        10
   104.5000         8
   104.5200        14
   104.5400         8
   104.5600         6
   104.5800         8
   104.6000        12
   104.6200         8
   104.6400         6
   104.6600         6
   104.6800        12
   104.7000        12
   104.7200         8
   104.7400        12
   104.7600         8
   104.7800        10
   104.8000         8
   104.8200        18
   104.8400         8
   104.8600        10
   104.8800        12
   104.9000        16
   104.9200        10
   104.9400        16
   104.9600        14
   104.9800         8
   105.0000        10
   105.0200        12
   105.0400         8
   105.0600        14
   105.0800        10
   105.1000         6
   105.1200        16
   105.1400        12
   105.1600        10
   105.1800        16
   105.2000        14
   105.2200         6
   105.2400        14
   105.2600         6
   105.2800        12
   105.3000        14
   105.3200         6
   105.3400        14
   105.3600         8
   105.3800        12
   105.4000         8
   105.4200        10
   105.4400        10
   105.4600        20
   105.4800        10
   105.5000         8
   105.5200         8
   105.5400        12
   105.5600        12
   105.5800        22
   105.6000        14
   105.6200        18
   105.6400        12
   105.6600        10
   105.6800        14
   105.7000         8
   105.7200         8
   105.7400         8
   105.7600        10
   105.7800         8
   105.8000        10
   105.8200         8
   105.8400        10
   105.8600         2
   105.8800        10
   105.9000        10
   105.9200        10
   105.9400         4
   105.9600         4
   105.9800        12
   106.0000        16
   106.0200        12
   106.0400        10
   106.0600        14
   106.0800         8
   106.1000        12
   106.1200         6
   106.1400         6
   106.1600        10
   106.1800         4
   106.2000         4
   106.2200        10
   106.2400         6
   106.2600         8
   106.2800         6
   106.3000        10
   106.3200        12
   106.3400         6
   106.3600        12
   106.3800         8
   106.4000        16
   106.4200         8
   106.4400         8
   106.4600        12
   106.4800        18
   106.5000         8
   106.5200        10
   106.5400         8
   106.5600         8
   106.5800        10
   106.6000        12
   106.6200         6
   106.6400         4
   106.6600         8
   106.6800        10
   106.7000         8
   106.7200         8
   106.7400         8
   106.7600         8
   106.7800        12
   106.8000        12
   106.8200        12
   106.8400         8
   106.8600         6
   106.8800        12
   106.9000        18
   106.9200         8
   106.9400        12
   106.9600        10
   106.9800         2
   107.0000         8
   107.0200         8
   107.0400         6
   107.0600         8
   107.0800        14
   107.1000        14
   107.1200         6
   107.1400        12
   107.1600        10
   107.1800        16
   107.2000         4
   107.2200        12
   107.2400        12
   107.2600        10
   107.2800         8
   107.3000        14
   107.3200        10
   107.3400         4
   107.3600         4
   107.3800        10
   107.4000         6
   107.4200         4
   107.4400        10
   107.4600        12
   107.4800        10
   107.5000         4
   107.5200        10
   107.5400        12
   107.5600        10
   107.5800        12
   107.6000         8
   107.6200         8
   107.6400        10
   107.6600         8
   107.6800        10
   107.7000         6
   107.7200         8
   107.7400        16
   107.7600         4
   107.7800         8
   107.8000        12
   107.8200         8
   107.8400         4
   107.8600         8
   107.8800        10
   107.9000        10
   107.9200         8
   107.9400         8
   107.9600        10
   107.9800         4
   108.0000         4
   108.0200        10
   108.0400        12
   108.0600        12
   108.0800        10
   108.1000        12
   108.1200        10
   108.1400         8
   108.1600        10
   108.1800        12
   108.2000         6
   108.2200         8
   108.2400         6
   108.2600        10
   108.2800         8
   108.3000        16
   108.3200        16
   108.3400         8
   108.3600         8
   108.3800         8
   108.4000         6
   108.4200        10
   108.4400        10
   108.4600         8
   108.4800        12
   108.5000        10
   108.5200        18
   108.5400        10
   108.5600         8
   108.5800        10
   108.6000        10
   108.6200        10
   108.6400        14
   108.6600        16
   108.6800         4
   108.7000        10
   108.7200        14
   108.7400        10
   108.7600         6
   108.7800         6
   108.8000         8
   108.8200         6
   108.8400        10
   108.8600        12
   108.8800        12
   108.9000         6
   108.9200         6
   108.9400        14
   108.9600        12
   108.9800        10
   109.0000        14
   109.0200        10
   109.0400        14
   109.0600        14
   109.0800        12
   109.1000        10
   109.1200        14
   109.1400         6
   109.1600        12
   109.1800         6
   109.2000        12
   109.2200        10
   109.2400         6
   109.2600        10
   109.2800        10
   109.3000         6
   109.3200         8
   109.3400         2
   109.3600         8
   109.3800        14
   109.4000         2
   109.4200        10
   109.4400         6
   109.4600         8
   109.4800        14
   109.5000        14
   109.5200         8
   109.5400         8
   109.5600        10
   109.5800         6
   109.6000        10
   109.6200        10
   109.6400         4
   109.6600         8
   109.6800        14
   109.7000         8
   109.7200        12
   109.7400        10
   109.7600        10
   109.7800         8
   109.8000        12
   109.8200        12
   109.8400        10
   109.8600        10
   109.8800        10
   109.9000         8
   109.9200         2
   109.9400        10
   109.9600        12
   109.9800        12
   110.0000         6
   110.0200        18
   110.0400        10
   110.0600         4
   110.0800        10
   110.1000         8
   110.1200        14
   110.1400        12
   110.1600         8
   110.1800        12
   110.2000        12
   110.2200         6
   110.2400        10
   110.2600        14
   110.2800         6
   110.3000        12
   110.3200        12
   110.3400        14
   110.3600        10
   110.3800         8
   110.4000         4
   110.4200         8
   110.4400         6
   110.4600        10
   110.4800        10
   110.5000         8
   110.5200        10
   110.5400         8
   110.5600        12
   110.5800        10
   110.6000        10
   110.6200        10
   110.6400        10
   110.6600        10
   110.6800        12
   110.7000        14
   110.7200         6
   110.7400        16
   110.7600        12
   110.7800         6
   110.8000         8
   110.8200         6
   110.8400        12
   110.8600         6
   110.8800        14
   110.9000        16
   110.9200        12
   110.9400        14
   110.9600        10
   110.9800         8
   111.0000         6
   111.0200        16
   111.0400         8
   111.0600        12
   111.0800        10
   111.1000        14
   111.1200        14
   111.1400         8
   111.1600        12
   111.1800        12
   111.2000        10
   111.2200        14
   111.2400        12
   111.2600         6
   111.2800        10
   111.3000         6
   111.3200         8
   111.3400        12
   111.3600        18
   111.3800        14
   111.4000        12
   111.4200         6
   111.4400         8
   111.4600        10
   111.4800        12
   111.5000        12
   111.5200        10
   111.5400        14
   111.5600        16
   111.5800        12
   111.6000         4
   111.6200         8
   111.6400        10
   111.6600        12
   111.6800        16
   111.7000         8
   111.7200        10
   111.7400        12
   111.7600        10
   111.7800        10
   111.8000        10
   111.8200         4
   111.8400         8
   111.8600        10
   111.8800        10
   111.9000         4
   111.9200        12
   111.9400        16
   111.9600        10
   111.9800        22
   112.0000        14
   112.0200         8
   112.0400        14
   112.0600        18
   112.0800        10
   112.1000        12
   112.1200        16
   112.1400        12
   112.1600         8
   112.1800        14
   112.2000         8
   112.2200        16
   112.2400        10
   112.2600        12
   112.2800        10
   112.3000        10
   112.3200        12
   112.3400        14
   112.3600         8
   112.3800        16
   112.4000        12
   112.4200         4
   112.4400         8
   112.4600        10
   112.4800        10
   112.5000         8
   112.5200        14
   112.5400         8
   112.5600         8
   112.5800         6
   112.6000         8
   112.6200         4
   112.6400        14
   112.6600        16
   112.6800        10
   112.7000        10
   112.7200        18
   112.7400         6
   112.7600        10
   112.7800         6
   112.8000        10
   112.8200        10
   112.8400        14
   112.8600        10
   112.8800         8
   112.9000        10
   112.9200         2
   112.9400         6
   112.9600         8
   112.9800         8
   113.0000         8
   113.0200        18
   113.0400        10
   113.0600        12
   113.0800        16
   113.1000         8
   113.1200         6
   113.1400         8
   113.1600        10
   113.1800        10
   113.2000        16
   113.2200        10
   113.2400         8
   113.2600        12
   113.2800         8
   113.3000        10
   113.3200         8
   113.3400        10
   113.3600         6
   113.3800         4
   113.4000        10
   113.4200        10
   113.4400        12
   113.4600         4
   113.4800        10
   113.5000        12
   113.5200         6
   113.5400        12
   113.5600         4
   113.5800        12
   113.6000        10
   113.6200        14
   113.6400        16
   113.6600         8
   113.6800         6
   113.7000        12
   113.7200        10
   113.7400        10
   113.7600        10
   113.7800        14
   113.8000         8
   113.8200        10
   113.8400        10
   113.8600        10
   113.8800        10
   113.9000        12
   113.9200        12
   113.9400         8
   113.9600        10
   113.9800         6
   114.0000         8
   114.0200        12
   114.0400        10
   114.0600        10
   114.0800         6
   114.1000         6
   114.1200         8
   114.1400        10
   114.1600         8
   114.1800         8
   114.2000        10
   114.2200         8
   114.2400         6
   114.2600         6
   114.2800         8
   114.3000         8
   114.3200        12
   114.3400         6
   114.3600        14
   114.3800        12
   114.4000         6
   114.4200         8
   114.4400        14
   114.4600        10
   114.4800        12
   114.5000        10
   114.5200        16
   114.5400        12
   114.5600        10
   114.5800         4
   114.6000        10
   114.6200        18
   114.6400        10
   114.6600        18
   114.6800        10
   114.7000        12
   114.7200         6
   114.7400        12
   114.7600        12
   114.7800        14
   114.8000        14
   114.8200        12
   114.8400         8
   114.8600        16
   114.8800         8
   114.9000         4
   114.9200         6
   114.9400        14
   114.9600         8
   114.9800        10
   115.0000        12
   115.0200        10
   115.0400         6
   115.0600        14
   115.0800         6
   115.1000        12
   115.1200        12
   115.1400        12
   115.1600        12
   115.1800        14
   115.2000         6
   115.2200         6
   115.2400        12
   115.2600        12
   115.2800         8
   115.3000        12
   115.3200         6
   115.3400        14
   115.3600        10
   115.3800         8
   115.4000        12
   115.4200        16
   115.4400        12
   115.4600        12
   115.4800         8
   115.5000        12
   115.5200        12
   115.5400        14
   115.5600        18
   115.5800        10
   115.6000        14
   115.6200        14
   115.6400        12
   115.6600         6
   115.6800        10
   115.7000        14
   115.7200        10
   115.7400        14
   115.7600        12
   115.7800        12
   115.8000        10
   115.8200        10
   115.8400        12
   115.8600         8
   115.8800        14
   115.9000        12
   115.9200        16
   115.9400        12
   115.9600        12
   115.9800        12
   116.0000        16
   116.0200        10
   116.0400        14
   116.0600         8
   116.0800        16
   116.1000         8
   116.1200         6
   116.1400        26
   116.1600         6
   116.1800        10
   116.2000        10
   116.2200        10
   116.2400        12
   116.2600         8
   116.2800         6
   116.3000         6
   116.3200         8
   116.3400        12
   116.3600        10
   116.3800         4
   116.4000        10
   116.4200        14
   116.4400        10
   116.4600        14
   116.4800        12
   116.5000        14
   116.5200         4
   116.5400         8
   116.5600        10
   116.5800        10
   116.6000        16
   116.6200         4
   116.6400        14
   116.6600         8
   116.6800         8
   116.7000         6
   116.7200        12
   116.7400         6
   116.7600        10
   116.7800         8
   116.8000        10
   116.8200        12
   116.8400         8
   116.8600        10
   116.8800        14
   116.9000         8
   116.9200         6
   116.9400        10
   116.9600        14
   116.9800        10
   117.0000        12
   117.0200         8
   117.0400         8
   117.0600         8
   117.0800        12
   117.1000         8
   117.1200         8
   117.1400         8
   117.1600        14
   117.1800        16
   117.2000         2
   117.2200         8
   117.2400         8
   117.2600         4
   117.2800        12
   117.3000         6
   117.3200         6
   117.3400        10
   117.3600         4
   117.3800        16
   117.4000        16
   117.4200        18
   117.4400         8
   117.4600        12
   117.4800         8
   117.5000        12
   117.5200        10
   117.5400        12
   117.5600         6
   117.5800         6
   117.6000         8
   117.6200         8
   117.6400        10
   117.6600         4
   117.6800        10
   117.7000        12
   117.7200        10
   117.7400        10
   117.7600        16
   117.7800        10
   117.8000        10
   117.8200        10
   117.8400        12
   117.8600        10
   117.8800        10
   117.9000        10
   117.9200         8
   117.9400         4
   117.9600        10
   117.9800         8
   118.0000         4
   118.0200         4
   118.0400        18
   118.0600        14
   118.0800         8
   118.1000        20
   118.1200         8
   118.1400         8
   118.1600         8
   118.1800        10
   118.2000        10
   118.2200         6
   118.2400        10
   118.2600        10
   118.2800         8
   118.3000         6
   118.3200        12
   118.3400        10
   118.3600         6
   118.3800        12
   118.4000        10
   118.4200        10
   118.4400         8
   118.4600        10
   118.4800        12
   118.5000        12
   118.5200        12
   118.5400        12
   118.5600         6
   118.5800        12
   118.6000        10
   118.6200        12
   118.6400        12
   118.6600        12
   118.6800        10
   118.7000        10
   118.7200         6
   118.7400         6
   118.7600        16
   118.7800         8
   118.8000        10
   118.8200         6
   118.8400         6
   118.8600        10
   118.8800        10
   118.9000         8
   118.9200         8
   118.9400         8
   118.9600         8
   118.9800        12
   119.0000         6
   119.0200         8
   119.0400        10
   119.0600        14
   119.0800        18
   119.1000        10
   119.1200        10
   119.1400         8
   119.1600         8
   119.1800         8
   119.2000         8
   119.2200        12
   119.2400        14
   119.2600         8
   119.2800        10
   119.3000         6
   119.3200        16
   119.3400        14
   119.3600         6
   119.3800         8
   119.4000        10
   119.4200         6
   119.4400        12
   119.4600        16
   119.4800         4
   119.5000        12
   119.5200         8
   119.5400         8
   119.5600         8
   119.5800        10
   119.6000         8
   119.6200        16
   119.6400        14
   119.6600        10
   119.6800        10
   119.7000        10
   119.7200         8
   119.7400        12
   119.7600        12
   119.7800        10
   119.8000         2
   119.8200         6
   119.8400         6
   119.8600        12
   119.8800        16
   119.9000        16
   119.9200         6
   119.9400         8
   119.9600        10
   119.9800        14
   120.0000        14
