XLabel,Wavenumber
YLabel,Absorbance
FileType,Absorbance
DisplayDirection,20300
PeakDirection,20312
649.910264,0.000044
651.838781,0.000018
653.767298,0.000047
655.695815,0.000073
657.624332,0.000066
659.552849,0.000056
661.481366,0.000078
663.409883,0.000127
665.338401,0.000155
667.266918,0.000105
669.195435,0.000054
671.123952,0.000118
673.052469,0.000212
674.980986,0.000243
676.909503,0.000194
678.838020,0.000121
680.766537,0.000099
682.695055,0.000143
684.623572,0.000183
686.552089,0.000143
688.480606,0.000031
690.409123,-0.000053
692.337640,-0.000031
694.266157,0.000051
696.194674,0.000109
698.123191,0.000141
700.051708,0.000212
701.980226,0.000366
703.908743,0.000610
705.837260,0.000946
707.765777,0.001344
709.694294,0.001685
711.622811,0.001814
713.551328,0.001684
715.479845,0.001376
717.408362,0.001000
719.336879,0.000641
721.265397,0.000373
723.193914,0.000233
725.122431,0.000167
727.050948,0.000105
728.979465,0.000045
730.907982,0.000015
732.836499,0.000010
734.765016,0.000015
736.693533,0.000040
738.622051,0.000079
740.550568,0.000078
742.479085,0.000019
744.407602,-0.000036
746.336119,-0.000042
748.264636,-0.000013
750.193153,0.000012
752.121670,0.000005
754.050187,-0.000024
755.978704,-0.000028
757.907222,0.000012
759.835739,0.000053
761.764256,0.000046
763.692773,0.000004
765.621290,-0.000024
767.549807,-0.000020
769.478324,-0.000015
771.406841,-0.000028
773.335358,-0.000028
775.263875,0.000006
777.192393,0.000045
779.120910,0.000046
781.049427,0.000001
782.977944,-0.000059
784.906461,-0.000099
786.834978,-0.000117
788.763495,-0.000126
790.692012,-0.000135
792.620529,-0.000152
794.549047,-0.000171
796.477564,-0.000172
798.406081,-0.000145
800.334598,-0.000119
802.263115,-0.000123
804.191632,-0.000154
806.120149,-0.000184
808.048666,-0.000191
809.977183,-0.000169
811.905700,-0.000148
813.834218,-0.000165
815.762735,-0.000190
817.691252,-0.000169
819.619769,-0.000116
821.548286,-0.000095
823.476803,-0.000122
825.405320,-0.000162
827.333837,-0.000190
829.262354,-0.000193
831.190871,-0.000163
833.119389,-0.000119
835.047906,-0.000096
836.976423,-0.000107
838.904940,-0.000136
840.833457,-0.000158
842.761974,-0.000160
844.690491,-0.000140
846.619008,-0.000110
848.547525,-0.000099
850.476043,-0.000116
852.404560,-0.000135
854.333077,-0.000144
856.261594,-0.000168
858.190111,-0.000201
860.118628,-0.000211
862.047145,-0.000185
863.975662,-0.000138
865.904179,-0.000111
867.832696,-0.000129
869.761214,-0.000162
871.689731,-0.000162
873.618248,-0.000133
875.546765,-0.000113
877.475282,-0.000116
879.403799,-0.000120
881.332316,-0.000113
883.260833,-0.000119
885.189350,-0.000157
887.117867,-0.000200
889.046385,-0.000209
890.974902,-0.000175
892.903419,-0.000129
894.831936,-0.000109
896.760453,-0.000123
898.688970,-0.000140
900.617487,-0.000137
902.546004,-0.000123
904.474521,-0.000114
906.403039,-0.000112
908.331556,-0.000124
910.260073,-0.000142
912.188590,-0.000139
914.117107,-0.000112
916.045624,-0.000096
917.974141,-0.000105
919.902658,-0.000131
921.831175,-0.000152
923.759692,-0.000149
925.688210,-0.000119
927.616727,-0.000093
929.545244,-0.000082
931.473761,-0.000062
933.402278,-0.000023
935.330795,-0.000005
937.259312,-0.000048
939.187829,-0.000113
941.116346,-0.000122
943.044863,-0.000075
944.973381,-0.000037
946.901898,-0.000037
948.830415,-0.000069
950.758932,-0.000118
952.687449,-0.000154
954.615966,-0.000156
956.544483,-0.000135
958.473000,-0.000107
960.401517,-0.000083
962.330034,-0.000070
964.258552,-0.000064
966.187069,-0.000052
968.115586,-0.000031
970.044103,-0.000013
971.972620,-0.000015
973.901137,-0.000029
975.829654,-0.000042
977.758171,-0.000052
979.686688,-0.000058
981.615206,-0.000070
983.543723,-0.000100
985.472240,-0.000136
987.400757,-0.000157
989.329274,-0.000164
991.257791,-0.000167
993.186308,-0.000165
995.114825,-0.000157
997.043342,-0.000155
998.971859,-0.000167
1000.900377,-0.000185
1002.828894,-0.000194
1004.757411,-0.000199
1006.685928,-0.000201
1008.614445,-0.000183
1010.542962,-0.000139
1012.471479,-0.000099
1014.399996,-0.000091
1016.328513,-0.000108
1018.257030,-0.000127
1020.185548,-0.000121
1022.114065,-0.000048
1024.042582,0.000097
1025.971099,0.000221
1027.899616,0.000209
1029.828133,0.000072
1031.756650,-0.000082
1033.685167,-0.000180
1035.613684,-0.000223
1037.542202,-0.000239
1039.470719,-0.000254
1041.399236,-0.000273
1043.327753,-0.000277
1045.256270,-0.000256
1047.184787,-0.000228
1049.113304,-0.000213
1051.041821,-0.000210
1052.970338,-0.000209
1054.898855,-0.000224
1056.827373,-0.000267
1058.755890,-0.000304
1060.684407,-0.000281
1062.612924,-0.000204
1064.541441,-0.000119
1066.469958,-0.000021
1068.398475,0.000104
1070.326992,0.000188
1072.255509,0.000167
1074.184026,0.000071
1076.112544,-0.000028
1078.041061,-0.000080
1079.969578,-0.000109
1081.898095,-0.000200
1083.826612,-0.000338
1085.755129,-0.000402
1087.683646,-0.000349
1089.612163,-0.000230
1091.540680,-0.000069
1093.469198,0.000117
1095.397715,0.000250
1097.326232,0.000250
1099.254749,0.000127
1101.183266,0.000022
1103.111783,0.000120
1105.040300,0.000454
1106.968817,0.000885
1108.897334,0.001283
1110.825851,0.001529
1112.754369,0.001533
1114.682886,0.001379
1116.611403,0.001217
1118.539920,0.001055
1120.468437,0.000821
1122.396954,0.000545
1124.325471,0.000334
1126.253988,0.000221
1128.182505,0.000116
1130.111022,-0.000073
1132.039540,-0.000286
1133.968057,-0.000337
1135.896574,-0.000192
1137.825091,-0.000063
1139.753608,-0.000079
1141.682125,-0.000132
1143.610642,-0.000141
1145.539159,-0.000159
1147.467676,-0.000211
1149.396194,-0.000235
1151.324711,-0.000204
1153.253228,-0.000150
1155.181745,-0.000116
1157.110262,-0.000120
1159.038779,-0.000157
1160.967296,-0.000214
1162.895813,-0.000254
1164.824330,-0.000238
1166.752847,-0.000180
1168.681365,-0.000114
1170.609882,-0.000038
1172.538399,0.000056
1174.466916,0.000136
1176.395433,0.000154
1178.323950,0.000081
1180.252467,-0.000067
1182.180984,-0.000227
1184.109501,-0.000310
1186.038018,-0.000276
1187.966536,-0.000206
1189.895053,-0.000207
1191.823570,-0.000294
1193.752087,-0.000431
1195.680604,-0.000545
1197.609121,-0.000504
1199.537638,-0.000304
1201.466155,-0.000146
1203.394672,-0.000158
1205.323189,-0.000286
1207.251707,-0.000446
1209.180224,-0.000540
1211.108741,-0.000470
1213.037258,-0.000295
1214.965775,-0.000207
1216.894292,-0.000277
1218.822809,-0.000408
1220.751326,-0.000488
1222.679843,-0.000461
1224.608361,-0.000337
1226.536878,-0.000222
1228.465395,-0.000214
1230.393912,-0.000266
1232.322429,-0.000300
1234.250946,-0.000312
1236.179463,-0.000283
1238.107980,-0.000190
1240.036497,-0.000093
1241.965014,-0.000052
1243.893532,-0.000013
1245.822049,0.000082
1247.750566,0.000186
1249.679083,0.000246
1251.607600,0.000282
1253.536117,0.000310
1255.464634,0.000315
1257.393151,0.000335
1259.321668,0.000448
1261.250185,0.000689
1263.178703,0.001063
1265.107220,0.001579
1267.035737,0.002239
1268.964254,0.003019
1270.892771,0.003783
1272.821288,0.004308
1274.749805,0.004471
1276.678322,0.004281
1278.606839,0.003797
1280.535357,0.003172
1282.463874,0.002546
1284.392391,0.001946
1286.320908,0.001387
1288.249425,0.000931
1290.177942,0.000618
1292.106459,0.000410
1294.034976,0.000249
1295.963493,0.000120
1297.892010,0.000029
1299.820528,-0.000028
1301.749045,-0.000049
1303.677562,-0.000032
1305.606079,-0.000008
1307.534596,0.000014
1309.463113,0.000083
1311.391630,0.000244
1313.320147,0.000433
1315.248664,0.000508
1317.177181,0.000404
1319.105699,0.000209
1321.034216,0.000035
1322.962733,-0.000087
1324.891250,-0.000163
1326.819767,-0.000202
1328.748284,-0.000219
1330.676801,-0.000230
1332.605318,-0.000228
1334.533835,-0.000189
1336.462353,-0.000116
1338.390870,-0.000076
1340.319387,-0.000140
1342.247904,-0.000271
1344.176421,-0.000375
1346.104938,-0.000409
1348.033455,-0.000399
1349.961972,-0.000395
1351.890489,-0.000401
1353.819006,-0.000387
1355.747524,-0.000362
1357.676041,-0.000341
1359.604558,-0.000296
1361.533075,-0.000210
1363.461592,-0.000149
1365.390109,-0.000152
1367.318626,-0.000166
1369.247143,-0.000153
1371.175660,-0.000107
1373.104177,-0.000032
1375.032695,0.000030
1376.961212,0.000056
1378.889729,0.000068
1380.818246,0.000071
1382.746763,0.000063
1384.675280,0.000056
1386.603797,0.000028
1388.532314,-0.000044
1390.460831,-0.000113
1392.389349,-0.000134
1394.317866,-0.000117
1396.246383,-0.000115
1398.174900,-0.000177
1400.103417,-0.000270
1402.031934,-0.000334
1403.960451,-0.000380
1405.888968,-0.000445
1407.817485,-0.000495
1409.746002,-0.000481
1411.674520,-0.000436
1413.603037,-0.000405
1415.531554,-0.000369
1417.460071,-0.000311
1419.388588,-0.000286
1421.317105,-0.000324
1423.245622,-0.000370
1425.174139,-0.000393
1427.102656,-0.000392
1429.031173,-0.000382
1430.959691,-0.000379
1432.888208,-0.000377
1434.816725,-0.000351
1436.745242,-0.000322
1438.673759,-0.000329
1440.602276,-0.000336
1442.530793,-0.000300
1444.459310,-0.000200
1446.387827,-0.000018
1448.316344,0.000227
1450.244862,0.000454
1452.173379,0.000621
1454.101896,0.000750
1456.030413,0.000834
1457.958930,0.000754
1459.887447,0.000594
1461.815964,0.000503
1463.744481,0.000439
1465.672998,0.000338
1467.601516,0.000241
1469.530033,0.000212
1471.458550,0.000224
1473.387067,0.000175
1475.315584,0.000035
1477.244101,-0.000113
1479.172618,-0.000234
1481.101135,-0.000320
1483.029652,-0.000353
1484.958169,-0.000318
1486.886687,-0.000223
1488.815204,-0.000147
1490.743721,-0.000169
1492.672238,-0.000211
1494.600755,-0.000206
1496.529272,-0.000185
1498.457789,-0.000211
1500.386306,-0.000269
1502.314823,-0.000286
1504.243340,-0.000184
1506.171858,0.000092
1508.100375,0.000204
1510.028892,-0.000015
1511.957409,-0.000176
1513.885926,-0.000193
1515.814443,-0.000132
1517.742960,-0.000075
1519.671477,-0.000024
1521.599994,0.000020
1523.528512,-0.000015
1525.457029,-0.000113
1527.385546,-0.000217
1529.314063,-0.000279
1531.242580,-0.000269
1533.171097,-0.000212
1535.099614,-0.000173
1537.028131,-0.000117
1538.956648,0.000063
1540.885165,0.000276
1542.813683,0.000144
1544.742200,-0.000146
1546.670717,-0.000355
1548.599234,-0.000455
1550.527751,-0.000473
1552.456268,-0.000433
1554.384785,-0.000344
1556.313302,-0.000219
1558.241819,-0.000208
1560.170336,-0.000418
1562.098854,-0.000559
1564.027371,-0.000589
1565.955888,-0.000586
1567.884405,-0.000614
1569.812922,-0.000686
1571.741439,-0.000726
1573.669956,-0.000681
1575.598473,-0.000607
1577.526990,-0.000625
1579.455508,-0.000693
1581.384025,-0.000711
1583.312542,-0.000688
1585.241059,-0.000677
1587.169576,-0.000703
1589.098093,-0.000745
1591.026610,-0.000766
1592.955127,-0.000758
1594.883644,-0.000739
1596.812161,-0.000702
1598.740679,-0.000615
1600.669196,-0.000499
1602.597713,-0.000425
1604.526230,-0.000429
1606.454747,-0.000491
1608.383264,-0.000585
1610.311781,-0.000667
1612.240298,-0.000681
1614.168815,-0.000629
1616.097332,-0.000572
1618.025850,-0.000564
1619.954367,-0.000568
1621.882884,-0.000565
1623.811401,-0.000599
1625.739918,-0.000683
1627.668435,-0.000768
1629.596952,-0.000817
1631.525469,-0.000808
1633.453986,-0.000724
1635.382504,-0.000608
1637.311021,-0.000625
1639.239538,-0.000735
1641.168055,-0.000785
1643.096572,-0.000722
1645.025089,-0.000542
1646.953606,-0.000365
1648.882123,-0.000352
1650.810640,-0.000401
1652.739157,-0.000457
1654.667675,-0.000586
1656.596192,-0.000701
1658.524709,-0.000740
1660.453226,-0.000711
1662.381743,-0.000674
1664.310260,-0.000688
1666.238777,-0.000690
1668.167294,-0.000625
1670.095811,-0.000552
1672.024328,-0.000556
1673.952846,-0.000594
1675.881363,-0.000616
1677.809880,-0.000604
1679.738397,-0.000549
1681.666914,-0.000459
1683.595431,-0.000387
1685.523948,-0.000416
1687.452465,-0.000499
1689.380982,-0.000572
1691.309500,-0.000600
1693.238017,-0.000537
1695.166534,-0.000345
1697.095051,-0.000101
1699.023568,0.000001
1700.952085,-0.000011
1702.880602,0.000012
1704.809119,0.000067
1706.737636,0.000134
1708.666153,0.000274
1710.594671,0.000550
1712.523188,0.000997
1714.451705,0.001745
1716.380222,0.002961
1718.308739,0.004115
1720.237256,0.004650
1722.165773,0.004789
1724.094290,0.004622
1726.022807,0.004121
1727.951324,0.003379
1729.879842,0.002556
1731.808359,0.001746
1733.736876,0.000948
1735.665393,0.000365
1737.593910,0.000090
1739.522427,-0.000033
1741.450944,-0.000104
1743.379461,-0.000148
1745.307978,-0.000172
1747.236495,-0.000207
1749.165013,-0.000345
1751.093530,-0.000570
1753.022047,-0.000717
1754.950564,-0.000754
1756.879081,-0.000749
1758.807598,-0.000745
1760.736115,-0.000754
1762.664632,-0.000793
1764.593149,-0.000848
1766.521667,-0.000874
1768.450184,-0.000841
1770.378701,-0.000761
1772.307218,-0.000709
1774.235735,-0.000741
1776.164252,-0.000790
1778.092769,-0.000808
1780.021286,-0.000828
1781.949803,-0.000878
1783.878320,-0.000936
1785.806838,-0.000970
1787.735355,-0.000957
1789.663872,-0.000881
1791.592389,-0.000798
1793.520906,-0.000809
1795.449423,-0.000882
1797.377940,-0.000932
1799.306457,-0.000940
1801.234974,-0.000957
1803.163491,-0.001028
1805.092009,-0.001101
1807.020526,-0.001102
1808.949043,-0.001037
1810.877560,-0.000998
1812.806077,-0.001036
1814.734594,-0.001104
1816.663111,-0.001155
1818.591628,-0.001170
1820.520145,-0.001148
1822.448663,-0.001110
1824.377180,-0.001072
1826.305697,-0.001036
1828.234214,-0.001019
1830.162731,-0.001052
1832.091248,-0.001126
1834.019765,-0.001184
1835.948282,-0.001199
1837.876799,-0.001180
1839.805316,-0.001131
1841.733834,-0.001053
1843.662351,-0.000987
1845.590868,-0.001010
1847.519385,-0.001109
1849.447902,-0.001210
1851.376419,-0.001269
1853.304936,-0.001282
1855.233453,-0.001280
1857.161970,-0.001281
1859.090487,-0.001266
1861.019005,-0.001233
1862.947522,-0.001210
1864.876039,-0.001193
1866.804556,-0.001168
1868.733073,-0.001175
1870.661590,-0.001232
1872.590107,-0.001288
1874.518624,-0.001316
1876.447141,-0.001324
1878.375659,-0.001314
1880.304176,-0.001286
1882.232693,-0.001261
1884.161210,-0.001259
1886.089727,-0.001268
1888.018244,-0.001263
1889.946761,-0.001253
1891.875278,-0.001253
1893.803795,-0.001254
1895.732312,-0.001266
1897.660830,-0.001300
1899.589347,-0.001328
1901.517864,-0.001343
1903.446381,-0.001355
1905.374898,-0.001346
1907.303415,-0.001310
1909.231932,-0.001292
1911.160449,-0.001311
1913.088966,-0.001322
1915.017483,-0.001300
1916.946001,-0.001270
1918.874518,-0.001251
1920.803035,-0.001241
1922.731552,-0.001248
1924.660069,-0.001287
1926.588586,-0.001335
1928.517103,-0.001359
1930.445620,-0.001364
1932.374137,-0.001381
1934.302655,-0.001420
1936.231172,-0.001454
1938.159689,-0.001445
1940.088206,-0.001388
1942.016723,-0.001332
1943.945240,-0.001331
1945.873757,-0.001374
1947.802274,-0.001418
1949.730791,-0.001441
1951.659308,-0.001445
1953.587826,-0.001439
1955.516343,-0.001424
1957.444860,-0.001402
1959.373377,-0.001390
1961.301894,-0.001404
1963.230411,-0.001431
1965.158928,-0.001450
1967.087445,-0.001463
1969.015962,-0.001484
1970.944479,-0.001505
1972.872997,-0.001514
1974.801514,-0.001516
1976.730031,-0.001521
1978.658548,-0.001529
1980.587065,-0.001533
1982.515582,-0.001527
1984.444099,-0.001507
1986.372616,-0.001468
1988.301133,-0.001419
1990.229650,-0.001393
1992.158168,-0.001416
1994.086685,-0.001466
1996.015202,-0.001500
1997.943719,-0.001514
1999.872236,-0.001535
2001.800753,-0.001569
2003.729270,-0.001588
2005.657787,-0.001584
2007.586304,-0.001567
2009.514822,-0.001547
2011.443339,-0.001532
2013.371856,-0.001533
2015.300373,-0.001541
2017.228890,-0.001553
2019.157407,-0.001585
2021.085924,-0.001622
2023.014441,-0.001636
2024.942958,-0.001636
2026.871475,-0.001651
2028.799993,-0.001669
2030.728510,-0.001668
2032.657027,-0.001652
2034.585544,-0.001642
2036.514061,-0.001639
2038.442578,-0.001629
2040.371095,-0.001615
2042.299612,-0.001610
2044.228129,-0.001617
2046.156646,-0.001625
2048.085164,-0.001629
2050.013681,-0.001628
2051.942198,-0.001633
2053.870715,-0.001655
2055.799232,-0.001679
2057.727749,-0.001677
2059.656266,-0.001650
2061.584783,-0.001627
2063.513300,-0.001626
2065.441818,-0.001656
2067.370335,-0.001704
2069.298852,-0.001731
2071.227369,-0.001720
2073.155886,-0.001693
2075.084403,-0.001676
2077.012920,-0.001669
2078.941437,-0.001669
2080.869954,-0.001686
2082.798471,-0.001715
2084.726989,-0.001741
2086.655506,-0.001752
2088.584023,-0.001745
2090.512540,-0.001738
2092.441057,-0.001750
2094.369574,-0.001767
2096.298091,-0.001761
2098.226608,-0.001734
2100.155125,-0.001709
2102.083642,-0.001697
2104.012160,-0.001695
2105.940677,-0.001706
2107.869194,-0.001726
2109.797711,-0.001743
2111.726228,-0.001758
2113.654745,-0.001771
2115.583262,-0.001776
2117.511779,-0.001772
2119.440296,-0.001771
2121.368814,-0.001769
2123.297331,-0.001758
2125.225848,-0.001752
2127.154365,-0.001763
2129.082882,-0.001785
2131.011399,-0.001812
2132.939916,-0.001835
2134.868433,-0.001836
2136.796950,-0.001813
2138.725467,-0.001794
2140.653985,-0.001792
2142.582502,-0.001792
2144.511019,-0.001785
2146.439536,-0.001787
2148.368053,-0.001800
2150.296570,-0.001810
2152.225087,-0.001816
2154.153604,-0.001820
2156.082121,-0.001824
2158.010638,-0.001838
2159.939156,-0.001871
2161.867673,-0.001903
2163.796190,-0.001901
2165.724707,-0.001877
2167.653224,-0.001871
2169.581741,-0.001881
2171.510258,-0.001881
2173.438775,-0.001872
2175.367292,-0.001876
2177.295810,-0.001887
2179.224327,-0.001899
2181.152844,-0.001912
2183.081361,-0.001915
2185.009878,-0.001903
2186.938395,-0.001896
2188.866912,-0.001905
2190.795429,-0.001915
2192.723946,-0.001917
2194.652463,-0.001916
2196.580981,-0.001913
2198.509498,-0.001905
2200.438015,-0.001902
2202.366532,-0.001914
2204.295049,-0.001936
2206.223566,-0.001945
2208.152083,-0.001936
2210.080600,-0.001941
2212.009117,-0.001969
2213.937634,-0.001979
2215.866152,-0.001950
2217.794669,-0.001914
2219.723186,-0.001899
2221.651703,-0.001895
2223.580220,-0.001904
2225.508737,-0.001933
2227.437254,-0.001966
2229.365771,-0.001981
2231.294288,-0.001989
2233.222806,-0.002006
2235.151323,-0.002026
2237.079840,-0.002026
2239.008357,-0.001994
2240.936874,-0.001950
2242.865391,-0.001924
2244.793908,-0.001932
2246.722425,-0.001965
2248.650942,-0.001989
2250.579459,-0.001973
2252.507977,-0.001930
2254.436494,-0.001920
2256.365011,-0.001961
2258.293528,-0.002008
2260.222045,-0.002018
2262.150562,-0.002001
2264.079079,-0.001982
2266.007596,-0.001966
2267.936113,-0.001952
2269.864630,-0.001950
2271.793148,-0.001963
2273.721665,-0.001980
2275.650182,-0.001991
2277.578699,-0.001990
2279.507216,-0.001981
2281.435733,-0.001965
2283.364250,-0.001945
2285.292767,-0.001937
2287.221284,-0.001967
2289.149801,-0.002024
2291.078319,-0.002068
2293.006836,-0.002085
2294.935353,-0.002106
2296.863870,-0.002164
2298.792387,-0.002240
2300.720904,-0.002285
2302.649421,-0.002302
2304.577938,-0.002345
2306.506455,-0.002423
2308.434973,-0.002483
2310.363490,-0.002490
2312.292007,-0.002462
2314.220524,-0.002460
2316.149041,-0.002537
2318.077558,-0.002691
2320.006075,-0.002873
2321.934592,-0.003011
2323.863109,-0.003050
2325.791626,-0.003033
2327.720144,-0.003058
2329.648661,-0.003128
2331.577178,-0.003154
2333.505695,-0.003126
2335.434212,-0.003141
2337.362729,-0.003264
2339.291246,-0.003442
2341.219763,-0.003529
2343.148280,-0.003406
2345.076797,-0.003168
2347.005315,-0.003028
2348.933832,-0.003047
2350.862349,-0.003149
2352.790866,-0.003289
2354.719383,-0.003504
2356.647900,-0.003770
2358.576417,-0.003949
2360.504934,-0.003954
2362.433451,-0.003777
2364.361969,-0.003476
2366.290486,-0.003213
2368.219003,-0.003123
2370.147520,-0.003133
2372.076037,-0.003072
2374.004554,-0.002908
2375.933071,-0.002745
2377.861588,-0.002638
2379.790105,-0.002557
2381.718622,-0.002462
2383.647140,-0.002370
2385.575657,-0.002309
2387.504174,-0.002275
2389.432691,-0.002256
2391.361208,-0.002256
2393.289725,-0.002261
2395.218242,-0.002261
2397.146759,-0.002258
2399.075276,-0.002244
2401.003793,-0.002225
2402.932311,-0.002230
2404.860828,-0.002264
2406.789345,-0.002299
2408.717862,-0.002317
2410.646379,-0.002321
2412.574896,-0.002320
2414.503413,-0.002325
2416.431930,-0.002339
2418.360447,-0.002351
2420.288965,-0.002360
2422.217482,-0.002374
2424.145999,-0.002396
2426.074516,-0.002413
2428.003033,-0.002422
2429.931550,-0.002426
2431.860067,-0.002423
2433.788584,-0.002422
2435.717101,-0.002435
2437.645618,-0.002451
2439.574136,-0.002453
2441.502653,-0.002432
2443.431170,-0.002397
2445.359687,-0.002386
2447.288204,-0.002412
2449.216721,-0.002444
2451.145238,-0.002462
2453.073755,-0.002486
2455.002272,-0.002526
2456.930789,-0.002557
2458.859307,-0.002562
2460.787824,-0.002549
2462.716341,-0.002522
2464.644858,-0.002486
2466.573375,-0.002458
2468.501892,-0.002456
2470.430409,-0.002468
2472.358926,-0.002476
2474.287443,-0.002482
2476.215961,-0.002494
2478.144478,-0.002506
2480.072995,-0.002506
2482.001512,-0.002493
2483.930029,-0.002479
2485.858546,-0.002476
2487.787063,-0.002495
2489.715580,-0.002529
2491.644097,-0.002547
2493.572614,-0.002538
2495.501132,-0.002537
2497.429649,-0.002567
2499.358166,-0.002594
2501.286683,-0.002593
2503.215200,-0.002577
2505.143717,-0.002563
2507.072234,-0.002555
2509.000751,-0.002554
2510.929268,-0.002552
2512.857785,-0.002545
2514.786303,-0.002542
2516.714820,-0.002545
2518.643337,-0.002541
2520.571854,-0.002529
2522.500371,-0.002528
2524.428888,-0.002550
2526.357405,-0.002575
2528.285922,-0.002577
2530.214439,-0.002561
2532.142956,-0.002565
2534.071474,-0.002597
2535.999991,-0.002620
2537.928508,-0.002613
2539.857025,-0.002611
2541.785542,-0.002649
2543.714059,-0.002692
2545.642576,-0.002684
2547.571093,-0.002637
2549.499610,-0.002613
2551.428128,-0.002640
2553.356645,-0.002685
2555.285162,-0.002700
2557.213679,-0.002688
2559.142196,-0.002680
2561.070713,-0.002681
2562.999230,-0.002674
2564.927747,-0.002653
2566.856264,-0.002636
2568.784781,-0.002637
2570.713299,-0.002651
2572.641816,-0.002667
2574.570333,-0.002668
2576.498850,-0.002650
2578.427367,-0.002638
2580.355884,-0.002660
2582.284401,-0.002699
2584.212918,-0.002723
2586.141435,-0.002720
2588.069952,-0.002682
2589.998470,-0.002628
2591.926987,-0.002600
2593.855504,-0.002624
2595.784021,-0.002676
2597.712538,-0.002728
2599.641055,-0.002779
2601.569572,-0.002835
2603.498089,-0.002872
2605.426606,-0.002862
2607.355124,-0.002807
2609.283641,-0.002739
2611.212158,-0.002703
2613.140675,-0.002701
2615.069192,-0.002706
2616.997709,-0.002731
2618.926226,-0.002787
2620.854743,-0.002822
2622.783260,-0.002806
2624.711777,-0.002781
2626.640295,-0.002780
2628.568812,-0.002790
2630.497329,-0.002800
2632.425846,-0.002807
2634.354363,-0.002804
2636.282880,-0.002782
2638.211397,-0.002761
2640.139914,-0.002774
2642.068431,-0.002800
2643.996948,-0.002804
2645.925466,-0.002796
2647.853983,-0.002791
2649.782500,-0.002790
2651.711017,-0.002807
2653.639534,-0.002849
2655.568051,-0.002900
2657.496568,-0.002928
2659.425085,-0.002918
2661.353602,-0.002878
2663.282120,-0.002845
2665.210637,-0.002837
2667.139154,-0.002840
2669.067671,-0.002838
2670.996188,-0.002840
2672.924705,-0.002857
2674.853222,-0.002879
2676.781739,-0.002902
2678.710256,-0.002929
2680.638773,-0.002946
2682.567291,-0.002947
2684.495808,-0.002955
2686.424325,-0.002972
2688.352842,-0.002959
2690.281359,-0.002915
2692.209876,-0.002886
2694.138393,-0.002899
2696.066910,-0.002948
2697.995427,-0.003013
2699.923944,-0.003049
2701.852462,-0.003027
2703.780979,-0.002975
2705.709496,-0.002936
2707.638013,-0.002924
2709.566530,-0.002924
2711.495047,-0.002920
2713.423564,-0.002924
2715.352081,-0.002966
2717.280598,-0.003033
2719.209116,-0.003073
2721.137633,-0.003066
2723.066150,-0.003034
2724.994667,-0.003015
2726.923184,-0.003026
2728.851701,-0.003032
2730.780218,-0.003013
2732.708735,-0.002993
2734.637252,-0.002980
2736.565769,-0.002956
2738.494287,-0.002927
2740.422804,-0.002924
2742.351321,-0.002948
2744.279838,-0.002976
2746.208355,-0.003007
2748.136872,-0.003055
2750.065389,-0.003123
2751.993906,-0.003178
2753.922423,-0.003192
2755.850940,-0.003181
2757.779458,-0.003156
2759.707975,-0.003109
2761.636492,-0.003065
2763.565009,-0.003044
2765.493526,-0.003024
2767.422043,-0.003008
2769.350560,-0.003037
2771.279077,-0.003095
2773.207594,-0.003119
2775.136111,-0.003095
2777.064629,-0.003069
2778.993146,-0.003076
2780.921663,-0.003110
2782.850180,-0.003139
2784.778697,-0.003138
2786.707214,-0.003110
2788.635731,-0.003086
2790.564248,-0.003106
2792.492765,-0.003172
2794.421283,-0.003220
2796.349800,-0.003197
2798.278317,-0.003138
2800.206834,-0.003105
2802.135351,-0.003103
2804.063868,-0.003108
2805.992385,-0.003114
2807.920902,-0.003123
2809.849419,-0.003131
2811.777936,-0.003129
2813.706454,-0.003124
2815.634971,-0.003130
2817.563488,-0.003138
2819.492005,-0.003116
2821.420522,-0.003068
2823.349039,-0.003054
2825.277556,-0.003080
2827.206073,-0.003082
2829.134590,-0.003036
2831.063107,-0.002994
2832.991625,-0.002997
2834.920142,-0.003007
2836.848659,-0.002948
2838.777176,-0.002809
2840.705693,-0.002656
2842.634210,-0.002547
2844.562727,-0.002485
2846.491244,-0.002458
2848.419761,-0.002443
2850.348279,-0.002406
2852.276796,-0.002316
2854.205313,-0.002164
2856.133830,-0.001998
2858.062347,-0.001885
2859.990864,-0.001810
2861.919381,-0.001703
2863.847898,-0.001565
2865.776415,-0.001430
2867.704932,-0.001294
2869.633450,-0.001175
2871.561967,-0.001140
2873.490484,-0.001213
2875.419001,-0.001348
2877.347518,-0.001487
2879.276035,-0.001615
2881.204552,-0.001736
2883.133069,-0.001841
2885.061586,-0.001910
2886.990103,-0.001933
2888.918621,-0.001892
2890.847138,-0.001774
2892.775655,-0.001628
2894.704172,-0.001531
2896.632689,-0.001484
2898.561206,-0.001412
2900.489723,-0.001275
2902.418240,-0.001105
2904.346757,-0.000983
2906.275275,-0.000947
2908.203792,-0.000943
2910.132309,-0.000889
2912.060826,-0.000779
2913.989343,-0.000678
2915.917860,-0.000642
2917.846377,-0.000653
2919.774894,-0.000658
2921.703411,-0.000615
2923.631928,-0.000514
2925.560446,-0.000387
2927.488963,-0.000283
2929.417480,-0.000183
2931.345997,-0.000036
2933.274514,0.000086
2935.203031,0.000050
2937.131548,-0.000146
2939.060065,-0.000373
2940.988582,-0.000504
2942.917099,-0.000491
2944.845617,-0.000364
2946.774134,-0.000165
2948.702651,0.000108
2950.631168,0.000460
2952.559685,0.000845
2954.488202,0.001192
2956.416719,0.001401
2958.345236,0.001400
2960.273753,0.001238
2962.202271,0.001004
2964.130788,0.000722
2966.059305,0.000394
2967.987822,0.000021
2969.916339,-0.000385
2971.844856,-0.000788
2973.773373,-0.001154
2975.701890,-0.001475
2977.630407,-0.001751
2979.558924,-0.002003
2981.487442,-0.002250
2983.415959,-0.002467
2985.344476,-0.002619
2987.272993,-0.002707
2989.201510,-0.002759
2991.130027,-0.002811
2993.058544,-0.002892
2994.987061,-0.003004
2996.915578,-0.003100
2998.844095,-0.003139
3000.772613,-0.003142
3002.701130,-0.003151
3004.629647,-0.003185
3006.558164,-0.003228
3008.486681,-0.003246
3010.415198,-0.003249
3012.343715,-0.003292
3014.272232,-0.003377
3016.200749,-0.003443
3018.129267,-0.003465
3020.057784,-0.003458
3021.986301,-0.003441
3023.914818,-0.003414
3025.843335,-0.003370
3027.771852,-0.003309
3029.700369,-0.003276
3031.628886,-0.003315
3033.557403,-0.003385
3035.485920,-0.003412
3037.414438,-0.003383
3039.342955,-0.003331
3041.271472,-0.003305
3043.199989,-0.003348
3045.128506,-0.003430
3047.057023,-0.003469
3048.985540,-0.003448
3050.914057,-0.003427
3052.842574,-0.003448
3054.771091,-0.003495
3056.699609,-0.003529
3058.628126,-0.003530
3060.556643,-0.003513
3062.485160,-0.003488
3064.413677,-0.003456
3066.342194,-0.003432
3068.270711,-0.003418
3070.199228,-0.003413
3072.127745,-0.003451
3074.056262,-0.003543
3075.984780,-0.003630
3077.913297,-0.003663
3079.841814,-0.003638
3081.770331,-0.003588
3083.698848,-0.003577
3085.627365,-0.003621
3087.555882,-0.003663
3089.484399,-0.003686
3091.412916,-0.003729
3093.341434,-0.003787
3095.269951,-0.003831
3097.198468,-0.003848
3099.126985,-0.003823
3101.055502,-0.003744
3102.984019,-0.003646
3104.912536,-0.003592
3106.841053,-0.003621
3108.769570,-0.003723
3110.698087,-0.003840
3112.626605,-0.003901
3114.555122,-0.003888
3116.483639,-0.003834
3118.412156,-0.003765
3120.340673,-0.003722
3122.269190,-0.003752
3124.197707,-0.003825
3126.126224,-0.003860
3128.054741,-0.003856
3129.983258,-0.003864
3131.911776,-0.003881
3133.840293,-0.003857
3135.768810,-0.003807
3137.697327,-0.003815
3139.625844,-0.003892
3141.554361,-0.003953
3143.482878,-0.003957
3145.411395,-0.003936
3147.339912,-0.003916
3149.268430,-0.003903
3151.196947,-0.003910
3153.125464,-0.003936
3155.053981,-0.003952
3156.982498,-0.003964
3158.911015,-0.004017
3160.839532,-0.004099
3162.768049,-0.004134
3164.696566,-0.004107
3166.625083,-0.004066
3168.553601,-0.004043
3170.482118,-0.004062
3172.410635,-0.004110
3174.339152,-0.004121
3176.267669,-0.004061
3178.196186,-0.003991
3180.124703,-0.003990
3182.053220,-0.004056
3183.981737,-0.004110
3185.910254,-0.004094
3187.838772,-0.004055
3189.767289,-0.004072
3191.695806,-0.004140
3193.624323,-0.004164
3195.552840,-0.004098
3197.481357,-0.004037
3199.409874,-0.004094
3201.338391,-0.004212
3203.266908,-0.004240
3205.195426,-0.004144
3207.123943,-0.004042
3209.052460,-0.004042
3210.980977,-0.004108
3212.909494,-0.004136
3214.838011,-0.004096
3216.766528,-0.004024
3218.695045,-0.003975
3220.623562,-0.004008
3222.552079,-0.004109
3224.480597,-0.004181
3226.409114,-0.004194
3228.337631,-0.004219
3230.266148,-0.004282
3232.194665,-0.004325
3234.123182,-0.004315
3236.051699,-0.004268
3237.980216,-0.004219
3239.908733,-0.004224
3241.837250,-0.004296
3243.765768,-0.004379
3245.694285,-0.004402
3247.622802,-0.004355
3249.551319,-0.004300
3251.479836,-0.004310
3253.408353,-0.004363
3255.336870,-0.004370
3257.265387,-0.004332
3259.193904,-0.004313
3261.122422,-0.004324
3263.050939,-0.004352
3264.979456,-0.004383
3266.907973,-0.004393
3268.836490,-0.004364
3270.765007,-0.004325
3272.693524,-0.004326
3274.622041,-0.004371
3276.550558,-0.004409
3278.479075,-0.004413
3280.407593,-0.004402
3282.336110,-0.004407
3284.264627,-0.004440
3286.193144,-0.004472
3288.121661,-0.004461
3290.050178,-0.004429
3291.978695,-0.004418
3293.907212,-0.004404
3295.835729,-0.004347
3297.764246,-0.004295
3299.692764,-0.004320
3301.621281,-0.004410
3303.549798,-0.004478
3305.478315,-0.004464
3307.406832,-0.004387
3309.335349,-0.004301
3311.263866,-0.004237
3313.192383,-0.004216
3315.120900,-0.004222
3317.049417,-0.004203
3318.977935,-0.004160
3320.906452,-0.004140
3322.834969,-0.004161
3324.763486,-0.004237
3326.692003,-0.004368
3328.620520,-0.004475
3330.549037,-0.004454
3332.477554,-0.004321
3334.406071,-0.004223
3336.334589,-0.004275
3338.263106,-0.004403
3340.191623,-0.004476
3342.120140,-0.004497
3344.048657,-0.004511
3345.977174,-0.004517
3347.905691,-0.004528
3349.834208,-0.004548
3351.762725,-0.004536
3353.691242,-0.004498
3355.619760,-0.004495
3357.548277,-0.004527
3359.476794,-0.004567
3361.405311,-0.004614
3363.333828,-0.004641
3365.262345,-0.004622
3367.190862,-0.004587
3369.119379,-0.004579
3371.047896,-0.004617
3372.976413,-0.004692
3374.904931,-0.004752
3376.833448,-0.004767
3378.761965,-0.004775
3380.690482,-0.004795
3382.618999,-0.004779
3384.547516,-0.004719
3386.476033,-0.004674
3388.404550,-0.004675
3390.333067,-0.004717
3392.261585,-0.004780
3394.190102,-0.004808
3396.118619,-0.004775
3398.047136,-0.004725
3399.975653,-0.004687
3401.904170,-0.004680
3403.832687,-0.004719
3405.761204,-0.004769
3407.689721,-0.004780
3409.618238,-0.004771
3411.546756,-0.004808
3413.475273,-0.004880
3415.403790,-0.004905
3417.332307,-0.004842
3419.260824,-0.004735
3421.189341,-0.004694
3423.117858,-0.004771
3425.046375,-0.004855
3426.974892,-0.004854
3428.903409,-0.004822
3430.831927,-0.004838
3432.760444,-0.004892
3434.688961,-0.004931
3436.617478,-0.004930
3438.545995,-0.004889
3440.474512,-0.004793
3442.403029,-0.004660
3444.331546,-0.004585
3446.260063,-0.004640
3448.188581,-0.004783
3450.117098,-0.004917
3452.045615,-0.004987
3453.974132,-0.004980
3455.902649,-0.004923
3457.831166,-0.004886
3459.759683,-0.004925
3461.688200,-0.005020
3463.616717,-0.005095
3465.545234,-0.005088
3467.473752,-0.005033
3469.402269,-0.005031
3471.330786,-0.005086
3473.259303,-0.005101
3475.187820,-0.005053
3477.116337,-0.004981
3479.044854,-0.004876
3480.973371,-0.004766
3482.901888,-0.004766
3484.830405,-0.004902
3486.758923,-0.005056
3488.687440,-0.005137
3490.615957,-0.005170
3492.544474,-0.005182
3494.472991,-0.005148
3496.401508,-0.005084
3498.330025,-0.005023
3500.258542,-0.004926
3502.187059,-0.004798
3504.115577,-0.004747
3506.044094,-0.004823
3507.972611,-0.004965
3509.901128,-0.005086
3511.829645,-0.005117
3513.758162,-0.005064
3515.686679,-0.004982
3517.615196,-0.004901
3519.543713,-0.004819
3521.472230,-0.004733
3523.400748,-0.004662
3525.329265,-0.004647
3527.257782,-0.004707
3529.186299,-0.004799
3531.114816,-0.004850
3533.043333,-0.004839
3534.971850,-0.004826
3536.900367,-0.004873
3538.828884,-0.004949
3540.757401,-0.004935
3542.685919,-0.004746
3544.614436,-0.004467
3546.542953,-0.004343
3548.471470,-0.004438
3550.399987,-0.004634
3552.328504,-0.004861
3554.257021,-0.005024
3556.185538,-0.005046
3558.114055,-0.005003
3560.042572,-0.004965
3561.971090,-0.004844
3563.899607,-0.004584
3565.828124,-0.004409
3567.756641,-0.004574
3569.685158,-0.004851
3571.613675,-0.004991
3573.542192,-0.005010
3575.470709,-0.004979
3577.399226,-0.004957
3579.327744,-0.004989
3581.256261,-0.005041
3583.184778,-0.005005
3585.113295,-0.004828
3587.041812,-0.004661
3588.970329,-0.004725
3590.898846,-0.004883
3592.827363,-0.004903
3594.755880,-0.004780
3596.684397,-0.004657
3598.612915,-0.004621
3600.541432,-0.004686
3602.469949,-0.004795
3604.398466,-0.004823
3606.326983,-0.004740
3608.255500,-0.004674
3610.184017,-0.004695
3612.112534,-0.004712
3614.041051,-0.004684
3615.969568,-0.004606
3617.898086,-0.004495
3619.826603,-0.004535
3621.755120,-0.004748
3623.683637,-0.004881
3625.612154,-0.004784
3627.540671,-0.004528
3629.469188,-0.004433
3631.397705,-0.004597
3633.326222,-0.004783
3635.254740,-0.004905
3637.183257,-0.004943
3639.111774,-0.004883
3641.040291,-0.004748
3642.968808,-0.004575
3644.897325,-0.004333
3646.825842,-0.004008
3648.754359,-0.003907
3650.682876,-0.004280
3652.611393,-0.004650
3654.539911,-0.004843
3656.468428,-0.004964
3658.396945,-0.005054
3660.325462,-0.005073
3662.253979,-0.005032
3664.182496,-0.004968
3666.111013,-0.004855
3668.039530,-0.004625
3669.968047,-0.004340
3671.896564,-0.004209
3673.825082,-0.004251
3675.753599,-0.004421
3677.682116,-0.004644
3679.610633,-0.004796
3681.539150,-0.004862
3683.467667,-0.004868
3685.396184,-0.004807
3687.324701,-0.004647
3689.253218,-0.004510
3691.181736,-0.004621
3693.110253,-0.004830
3695.038770,-0.004971
3696.967287,-0.005040
3698.895804,-0.005043
3700.824321,-0.004966
3702.752838,-0.004850
3704.681355,-0.004770
3706.609872,-0.004716
3708.538389,-0.004632
3710.466907,-0.004537
3712.395424,-0.004552
3714.323941,-0.004686
3716.252458,-0.004845
3718.180975,-0.004934
3720.109492,-0.004892
3722.038009,-0.004789
3723.966526,-0.004768
3725.895043,-0.004885
3727.823560,-0.005031
3729.752078,-0.004989
3731.680595,-0.004625
3733.609112,-0.004114
3735.537629,-0.003950
3737.466146,-0.004128
3739.394663,-0.004268
3741.323180,-0.004273
3743.251697,-0.004174
3745.180214,-0.004055
3747.108732,-0.003929
3749.037249,-0.003745
3750.965766,-0.003759
3752.894283,-0.004089
3754.822800,-0.004352
3756.751317,-0.004449
3758.679834,-0.004595
3760.608351,-0.004874
3762.536868,-0.005096
3764.465385,-0.005163
3766.393903,-0.005114
3768.322420,-0.005025
3770.250937,-0.005018
3772.179454,-0.005129
3774.107971,-0.005231
3776.036488,-0.005220
3777.965005,-0.005133
3779.893522,-0.005079
3781.822039,-0.005041
3783.750556,-0.004987
3785.679074,-0.005039
3787.607591,-0.005220
3789.536108,-0.005362
3791.464625,-0.005372
3793.393142,-0.005257
3795.321659,-0.005010
3797.250176,-0.004669
3799.178693,-0.004367
3801.107210,-0.004299
3803.035728,-0.004547
3804.964245,-0.004873
3806.892762,-0.005083
3808.821279,-0.005189
3810.749796,-0.005251
3812.678313,-0.005283
3814.606830,-0.005252
3816.535347,-0.005074
3818.463864,-0.004720
3820.392381,-0.004392
3822.320899,-0.004378
3824.249416,-0.004622
3826.177933,-0.004911
3828.106450,-0.005117
3830.034967,-0.005174
3831.963484,-0.005117
3833.892001,-0.005000
3835.820518,-0.004767
3837.749035,-0.004380
3839.677552,-0.004134
3841.606070,-0.004333
3843.534587,-0.004787
3845.463104,-0.005115
3847.391621,-0.005148
3849.320138,-0.004887
3851.248655,-0.004336
3853.177172,-0.003871
3855.105689,-0.004171
3857.034206,-0.004722
3858.962723,-0.004999
3860.891241,-0.004975
3862.819758,-0.004848
3864.748275,-0.004824
3866.676792,-0.004839
3868.605309,-0.004790
3870.533826,-0.004770
3872.462343,-0.004874
3874.390860,-0.005054
3876.319377,-0.005203
3878.247895,-0.005225
3880.176412,-0.005130
3882.104929,-0.005065
3884.033446,-0.005102
3885.961963,-0.005132
3887.890480,-0.005064
3889.818997,-0.004955
3891.747514,-0.004965
3893.676031,-0.005120
3895.604548,-0.005223
3897.533066,-0.005154
3899.461583,-0.004971
3901.390100,-0.004869
3903.318617,-0.005013
3905.247134,-0.005301
3907.175651,-0.005528
3909.104168,-0.005677
3911.032685,-0.005797
3912.961202,-0.005846
3914.889719,-0.005770
3916.818237,-0.005624
3918.746754,-0.005502
3920.675271,-0.005391
3922.603788,-0.005259
3924.532305,-0.005209
3926.460822,-0.005324
3928.389339,-0.005500
3930.317856,-0.005612
3932.246373,-0.005699
3934.174891,-0.005829
3936.103408,-0.005894
3938.031925,-0.005772
3939.960442,-0.005553
3941.888959,-0.005445
3943.817476,-0.005489
3945.745993,-0.005535
3947.674510,-0.005527
3949.603027,-0.005543
3951.531544,-0.005601
3953.460062,-0.005639
3955.388579,-0.005652
3957.317096,-0.005701
3959.245613,-0.005816
3961.174130,-0.005952
3963.102647,-0.006044
3965.031164,-0.006067
3966.959681,-0.005998
3968.888198,-0.005820
3970.816715,-0.005602
3972.745233,-0.005478
3974.673750,-0.005513
3976.602267,-0.005629
3978.530784,-0.005710
3980.459301,-0.005721
3982.387818,-0.005711
3984.316335,-0.005748
3986.244852,-0.005818
3988.173369,-0.005856
3990.101887,-0.005893
3992.030404,-0.005983
3993.958921,-0.006055
3995.887438,-0.006030
3997.815955,-0.005977
3999.744472,-0.005997
4001.672989,-0.006057
