XLabel,Wavenumber
YLabel,Absorbance
FileType,Absorbance
DisplayDirection,20300
PeakDirection,20312
649.910264,-0.000112
651.838781,-0.000093
653.767298,-0.000071
655.695815,-0.000064
657.624332,-0.000083
659.552849,-0.000118
661.481366,-0.000137
663.409883,-0.000118
665.338401,-0.000100
667.266918,-0.000143
669.195435,-0.000187
671.123952,-0.000154
673.052469,-0.000113
674.980986,-0.000112
676.909503,-0.000133
678.838020,-0.000153
680.766537,-0.000153
682.695055,-0.000113
684.623572,-0.000047
686.552089,-0.000019
688.480606,-0.000065
690.409123,-0.000136
692.337640,-0.000168
694.266157,-0.000166
696.194674,-0.000156
698.123191,-0.000136
700.051708,-0.000080
701.980226,0.000061
703.908743,0.000341
705.837260,0.000775
707.765777,0.001297
709.694294,0.001745
711.622811,0.001938
713.551328,0.001814
715.479845,0.001463
717.408362,0.001020
719.336879,0.000589
721.265397,0.000257
723.193914,0.000059
725.122431,-0.000040
727.050948,-0.000093
728.979465,-0.000134
730.907982,-0.000172
732.836499,-0.000213
734.765016,-0.000243
736.693533,-0.000233
738.622051,-0.000193
740.550568,-0.000178
742.479085,-0.000214
744.407602,-0.000265
746.336119,-0.000293
748.264636,-0.000280
750.193153,-0.000236
752.121670,-0.000207
754.050187,-0.000220
755.978704,-0.000247
757.907222,-0.000268
759.835739,-0.000290
761.764256,-0.000323
763.692773,-0.000344
765.621290,-0.000327
767.549807,-0.000291
769.478324,-0.000282
771.406841,-0.000299
773.335358,-0.000297
775.263875,-0.000267
777.192393,-0.000246
779.120910,-0.000259
781.049427,-0.000294
782.977944,-0.000331
784.906461,-0.000362
786.834978,-0.000381
788.763495,-0.000378
790.692012,-0.000368
792.620529,-0.000385
794.549047,-0.000418
796.477564,-0.000424
798.406081,-0.000391
800.334598,-0.000355
802.263115,-0.000359
804.191632,-0.000402
806.120149,-0.000446
808.048666,-0.000462
809.977183,-0.000458
811.905700,-0.000469
813.834218,-0.000507
815.762735,-0.000533
817.691252,-0.000506
819.619769,-0.000453
821.548286,-0.000434
823.476803,-0.000456
825.405320,-0.000464
827.333837,-0.000436
829.262354,-0.000400
831.190871,-0.000378
833.119389,-0.000375
835.047906,-0.000398
836.976423,-0.000438
838.904940,-0.000469
840.833457,-0.000465
842.761974,-0.000422
844.690491,-0.000357
846.619008,-0.000312
848.547525,-0.000328
850.476043,-0.000387
852.404560,-0.000423
854.333077,-0.000420
856.261594,-0.000415
858.190111,-0.000414
860.118628,-0.000405
862.047145,-0.000388
863.975662,-0.000372
865.904179,-0.000377
867.832696,-0.000429
869.761214,-0.000491
871.689731,-0.000502
873.618248,-0.000468
875.546765,-0.000440
877.475282,-0.000444
879.403799,-0.000454
881.332316,-0.000444
883.260833,-0.000433
885.189350,-0.000439
887.117867,-0.000445
889.046385,-0.000436
890.974902,-0.000413
892.903419,-0.000388
894.831936,-0.000380
896.760453,-0.000391
898.688970,-0.000406
900.617487,-0.000422
902.546004,-0.000433
904.474521,-0.000422
906.403039,-0.000405
908.331556,-0.000412
910.260073,-0.000436
912.188590,-0.000437
914.117107,-0.000406
916.045624,-0.000382
917.974141,-0.000393
919.902658,-0.000425
921.831175,-0.000448
923.759692,-0.000444
925.688210,-0.000420
927.616727,-0.000403
929.545244,-0.000396
931.473761,-0.000369
933.402278,-0.000321
935.330795,-0.000294
937.259312,-0.000319
939.187829,-0.000359
941.116346,-0.000364
943.044863,-0.000342
944.973381,-0.000336
946.901898,-0.000357
948.830415,-0.000387
950.758932,-0.000423
952.687449,-0.000447
954.615966,-0.000435
956.544483,-0.000401
958.473000,-0.000377
960.401517,-0.000371
962.330034,-0.000361
964.258552,-0.000330
966.187069,-0.000295
968.115586,-0.000283
970.044103,-0.000302
971.972620,-0.000336
973.901137,-0.000367
975.829654,-0.000387
977.758171,-0.000391
979.686688,-0.000378
981.615206,-0.000362
983.543723,-0.000370
985.472240,-0.000405
987.400757,-0.000439
989.329274,-0.000453
991.257791,-0.000462
993.186308,-0.000474
995.114825,-0.000480
997.043342,-0.000478
998.971859,-0.000485
1000.900377,-0.000512
1002.828894,-0.000548
1004.757411,-0.000584
1006.685928,-0.000609
1008.614445,-0.000607
1010.542962,-0.000576
1012.471479,-0.000546
1014.399996,-0.000543
1016.328513,-0.000549
1018.257030,-0.000535
1020.185548,-0.000482
1022.114065,-0.000364
1024.042582,-0.000181
1025.971099,-0.000037
1027.899616,-0.000064
1029.828133,-0.000245
1031.756650,-0.000435
1033.685167,-0.000546
1035.613684,-0.000595
1037.542202,-0.000622
1039.470719,-0.000646
1041.399236,-0.000664
1043.327753,-0.000671
1045.256270,-0.000681
1047.184787,-0.000695
1049.113304,-0.000697
1051.041821,-0.000688
1052.970338,-0.000687
1054.898855,-0.000704
1056.827373,-0.000737
1058.755890,-0.000749
1060.684407,-0.000698
1062.612924,-0.000591
1064.541441,-0.000455
1066.469958,-0.000286
1068.398475,-0.000109
1070.326992,-0.000041
1072.255509,-0.000147
1074.184026,-0.000350
1076.112544,-0.000535
1078.041061,-0.000607
1079.969578,-0.000546
1081.898095,-0.000456
1083.826612,-0.000450
1085.755129,-0.000516
1087.683646,-0.000573
1089.612163,-0.000555
1091.540680,-0.000436
1093.469198,-0.000245
1095.397715,-0.000075
1097.326232,-0.000001
1099.254749,-0.000018
1101.183266,-0.000047
1103.111783,0.000009
1105.040300,0.000213
1106.968817,0.000566
1108.897334,0.000983
1110.825851,0.001313
1112.754369,0.001470
1114.682886,0.001486
1116.611403,0.001392
1118.539920,0.001165
1120.468437,0.000806
1122.396954,0.000391
1124.325471,0.000025
1126.253988,-0.000233
1128.182505,-0.000389
1130.111022,-0.000494
1132.039540,-0.000563
1133.968057,-0.000541
1135.896574,-0.000438
1137.825091,-0.000360
1139.753608,-0.000364
1141.682125,-0.000404
1143.610642,-0.000445
1145.539159,-0.000500
1147.467676,-0.000575
1149.396194,-0.000641
1151.324711,-0.000658
1153.253228,-0.000623
1155.181745,-0.000576
1157.110262,-0.000560
1159.038779,-0.000571
1160.967296,-0.000587
1162.895813,-0.000595
1164.824330,-0.000578
1166.752847,-0.000521
1168.681365,-0.000444
1170.609882,-0.000355
1172.538399,-0.000243
1174.466916,-0.000148
1176.395433,-0.000156
1178.323950,-0.000282
1180.252467,-0.000452
1182.180984,-0.000588
1184.109501,-0.000674
1186.038018,-0.000721
1187.966536,-0.000730
1189.895053,-0.000687
1191.823570,-0.000621
1193.752087,-0.000632
1195.680604,-0.000743
1197.609121,-0.000791
1199.537638,-0.000710
1201.466155,-0.000669
1203.394672,-0.000728
1205.323189,-0.000744
1207.251707,-0.000701
1209.180224,-0.000724
1211.108741,-0.000824
1213.037258,-0.000886
1214.965775,-0.000847
1216.894292,-0.000751
1218.822809,-0.000673
1220.751326,-0.000649
1222.679843,-0.000675
1224.608361,-0.000717
1226.536878,-0.000756
1228.465395,-0.000792
1230.393912,-0.000795
1232.322429,-0.000734
1234.250946,-0.000638
1236.179463,-0.000562
1238.107980,-0.000517
1240.036497,-0.000455
1241.965014,-0.000329
1243.893532,-0.000179
1245.822049,-0.000090
1247.750566,-0.000068
1249.679083,-0.000030
1251.607600,0.000058
1253.536117,0.000142
1255.464634,0.000175
1257.393151,0.000199
1259.321668,0.000301
1261.250185,0.000546
1263.178703,0.000977
1265.107220,0.001635
1267.035737,0.002511
1268.964254,0.003521
1270.892771,0.004494
1272.821288,0.005193
1274.749805,0.005452
1276.678322,0.005255
1278.606839,0.004715
1280.535357,0.003982
1282.463874,0.003163
1284.392391,0.002339
1286.320908,0.001612
1288.249425,0.001053
1290.177942,0.000671
1292.106459,0.000424
1294.034976,0.000244
1295.963493,0.000078
1297.892010,-0.000078
1299.820528,-0.000208
1301.749045,-0.000292
1303.677562,-0.000329
1305.606079,-0.000334
1307.534596,-0.000288
1309.463113,-0.000127
1311.391630,0.000153
1313.320147,0.000416
1315.248664,0.000486
1317.177181,0.000325
1319.105699,0.000052
1321.034216,-0.000197
1322.962733,-0.000374
1324.891250,-0.000478
1326.819767,-0.000517
1328.748284,-0.000526
1330.676801,-0.000549
1332.605318,-0.000575
1334.533835,-0.000554
1336.462353,-0.000461
1338.390870,-0.000367
1340.319387,-0.000415
1342.247904,-0.000595
1344.176421,-0.000753
1346.104938,-0.000812
1348.033455,-0.000791
1349.961972,-0.000751
1351.890489,-0.000729
1353.819006,-0.000721
1355.747524,-0.000707
1357.676041,-0.000660
1359.604558,-0.000567
1361.533075,-0.000475
1363.461592,-0.000482
1365.390109,-0.000555
1367.318626,-0.000585
1369.247143,-0.000551
1371.175660,-0.000467
1373.104177,-0.000350
1375.032695,-0.000264
1376.961212,-0.000242
1378.889729,-0.000237
1380.818246,-0.000234
1382.746763,-0.000237
1384.675280,-0.000226
1386.603797,-0.000217
1388.532314,-0.000266
1390.460831,-0.000348
1392.389349,-0.000388
1394.317866,-0.000369
1396.246383,-0.000363
1398.174900,-0.000452
1400.103417,-0.000595
1402.031934,-0.000703
1403.960451,-0.000766
1405.888968,-0.000827
1407.817485,-0.000877
1409.746002,-0.000880
1411.674520,-0.000846
1413.603037,-0.000794
1415.531554,-0.000703
1417.460071,-0.000584
1419.388588,-0.000558
1421.317105,-0.000661
1423.245622,-0.000787
1425.174139,-0.000864
1427.102656,-0.000861
1429.031173,-0.000796
1430.959691,-0.000740
1432.888208,-0.000714
1434.816725,-0.000675
1436.745242,-0.000636
1438.673759,-0.000651
1440.602276,-0.000682
1442.530793,-0.000665
1444.459310,-0.000555
1446.387827,-0.000312
1448.316344,0.000028
1450.244862,0.000341
1452.173379,0.000570
1454.101896,0.000738
1456.030413,0.000805
1457.958930,0.000624
1459.887447,0.000397
1461.815964,0.000317
1463.744481,0.000307
1465.672998,0.000249
1467.601516,0.000159
1469.530033,0.000137
1471.458550,0.000165
1473.387067,0.000062
1475.315584,-0.000225
1477.244101,-0.000481
1479.172618,-0.000635
1481.101135,-0.000718
1483.029652,-0.000740
1484.958169,-0.000669
1486.886687,-0.000499
1488.815204,-0.000347
1490.743721,-0.000380
1492.672238,-0.000474
1494.600755,-0.000492
1496.529272,-0.000475
1498.457789,-0.000522
1500.386306,-0.000610
1502.314823,-0.000637
1504.243340,-0.000514
1506.171858,-0.000180
1508.100375,-0.000041
1510.028892,-0.000295
1511.957409,-0.000488
1513.885926,-0.000512
1515.814443,-0.000421
1517.742960,-0.000299
1519.671477,-0.000179
1521.599994,-0.000121
1523.528512,-0.000211
1525.457029,-0.000385
1527.385546,-0.000562
1529.314063,-0.000671
1531.242580,-0.000660
1533.171097,-0.000574
1535.099614,-0.000506
1537.028131,-0.000407
1538.956648,-0.000149
1540.885165,0.000109
1542.813683,-0.000082
1544.742200,-0.000444
1546.670717,-0.000699
1548.599234,-0.000822
1550.527751,-0.000834
1552.456268,-0.000751
1554.384785,-0.000579
1556.313302,-0.000357
1558.241819,-0.000306
1560.170336,-0.000603
1562.098854,-0.000835
1564.027371,-0.000925
1565.955888,-0.000948
1567.884405,-0.000955
1569.812922,-0.001001
1571.741439,-0.001050
1573.669956,-0.001012
1575.598473,-0.000942
1577.526990,-0.001003
1579.455508,-0.001128
1581.384025,-0.001181
1583.312542,-0.001172
1585.241059,-0.001162
1587.169576,-0.001186
1589.098093,-0.001227
1591.026610,-0.001258
1592.955127,-0.001270
1594.883644,-0.001261
1596.812161,-0.001209
1598.740679,-0.001088
1600.669196,-0.000927
1602.597713,-0.000814
1604.526230,-0.000805
1606.454747,-0.000868
1608.383264,-0.000969
1610.311781,-0.001077
1612.240298,-0.001121
1614.168815,-0.001064
1616.097332,-0.000975
1618.025850,-0.000959
1619.954367,-0.000960
1621.882884,-0.000921
1623.811401,-0.000924
1625.739918,-0.001024
1627.668435,-0.001149
1629.596952,-0.001224
1631.525469,-0.001209
1633.453986,-0.001092
1635.382504,-0.000954
1637.311021,-0.001011
1639.239538,-0.001181
1641.168055,-0.001259
1643.096572,-0.001176
1645.025089,-0.000924
1646.953606,-0.000664
1648.882123,-0.000603
1650.810640,-0.000607
1652.739157,-0.000674
1654.667675,-0.000935
1656.596192,-0.001152
1658.524709,-0.001230
1660.453226,-0.001209
1662.381743,-0.001164
1664.310260,-0.001154
1666.238777,-0.001119
1668.167294,-0.001019
1670.095811,-0.000926
1672.024328,-0.000912
1673.952846,-0.000939
1675.881363,-0.000967
1677.809880,-0.000952
1679.738397,-0.000869
1681.666914,-0.000725
1683.595431,-0.000600
1685.523948,-0.000654
1687.452465,-0.000812
1689.380982,-0.000951
1691.309500,-0.001016
1693.238017,-0.000935
1695.166534,-0.000668
1697.095051,-0.000361
1699.023568,-0.000284
1700.952085,-0.000352
1702.880602,-0.000346
1704.809119,-0.000277
1706.737636,-0.000194
1708.666153,-0.000040
1710.594671,0.000281
1712.523188,0.000863
1714.451705,0.001882
1716.380222,0.003504
1718.308739,0.005001
1720.237256,0.005683
1722.165773,0.005856
1724.094290,0.005629
1726.022807,0.004980
1727.951324,0.004040
1729.879842,0.003015
1731.808359,0.002015
1733.736876,0.001040
1735.665393,0.000310
1737.593910,-0.000060
1739.522427,-0.000243
1741.450944,-0.000352
1743.379461,-0.000405
1745.307978,-0.000420
1747.236495,-0.000446
1749.165013,-0.000588
1751.093530,-0.000860
1753.022047,-0.001083
1754.950564,-0.001172
1756.879081,-0.001182
1758.807598,-0.001184
1760.736115,-0.001202
1762.664632,-0.001238
1764.593149,-0.001275
1766.521667,-0.001265
1768.450184,-0.001179
1770.378701,-0.001054
1772.307218,-0.001031
1774.235735,-0.001161
1776.164252,-0.001287
1778.092769,-0.001340
1780.021286,-0.001362
1781.949803,-0.001399
1783.878320,-0.001448
1785.806838,-0.001478
1787.735355,-0.001445
1789.663872,-0.001325
1791.592389,-0.001204
1793.520906,-0.001215
1795.449423,-0.001301
1797.377940,-0.001356
1799.306457,-0.001387
1801.234974,-0.001458
1803.163491,-0.001571
1805.092009,-0.001648
1807.020526,-0.001636
1808.949043,-0.001572
1810.877560,-0.001558
1812.806077,-0.001631
1814.734594,-0.001711
1816.663111,-0.001743
1818.591628,-0.001736
1820.520145,-0.001705
1822.448663,-0.001654
1824.377180,-0.001590
1826.305697,-0.001532
1828.234214,-0.001503
1830.162731,-0.001542
1832.091248,-0.001638
1834.019765,-0.001721
1835.948282,-0.001765
1837.876799,-0.001773
1839.805316,-0.001737
1841.733834,-0.001644
1843.662351,-0.001546
1845.590868,-0.001558
1847.519385,-0.001674
1849.447902,-0.001795
1851.376419,-0.001867
1853.304936,-0.001894
1855.233453,-0.001903
1857.161970,-0.001897
1859.090487,-0.001874
1861.019005,-0.001847
1862.947522,-0.001818
1864.876039,-0.001761
1866.804556,-0.001688
1868.733073,-0.001686
1870.661590,-0.001780
1872.590107,-0.001871
1874.518624,-0.001913
1876.447141,-0.001926
1878.375659,-0.001926
1880.304176,-0.001920
1882.232693,-0.001933
1884.161210,-0.001970
1886.089727,-0.001977
1888.018244,-0.001917
1889.946761,-0.001855
1891.875278,-0.001860
1893.803795,-0.001900
1895.732312,-0.001934
1897.660830,-0.001957
1899.589347,-0.001967
1901.517864,-0.001973
1903.446381,-0.001976
1905.374898,-0.001955
1907.303415,-0.001924
1909.231932,-0.001932
1911.160449,-0.001989
1913.088966,-0.002030
1915.017483,-0.001995
1916.946001,-0.001908
1918.874518,-0.001839
1920.803035,-0.001815
1922.731552,-0.001837
1924.660069,-0.001912
1926.588586,-0.001994
1928.517103,-0.002032
1930.445620,-0.002037
1932.374137,-0.002049
1934.302655,-0.002081
1936.231172,-0.002102
1938.159689,-0.002073
1940.088206,-0.001996
1942.016723,-0.001932
1943.945240,-0.001933
1945.873757,-0.001987
1947.802274,-0.002055
1949.730791,-0.002116
1951.659308,-0.002149
1953.587826,-0.002142
1955.516343,-0.002114
1957.444860,-0.002102
1959.373377,-0.002113
1961.301894,-0.002124
1963.230411,-0.002103
1965.158928,-0.002047
1967.087445,-0.002017
1969.015962,-0.002071
1970.944479,-0.002165
1972.872997,-0.002224
1974.801514,-0.002241
1976.730031,-0.002245
1978.658548,-0.002248
1980.587065,-0.002247
1982.515582,-0.002245
1984.444099,-0.002241
1986.372616,-0.002214
1988.301133,-0.002154
1990.229650,-0.002106
1992.158168,-0.002131
1994.086685,-0.002204
1996.015202,-0.002250
1997.943719,-0.002251
1999.872236,-0.002253
2001.800753,-0.002284
2003.729270,-0.002322
2005.657787,-0.002334
2007.586304,-0.002325
2009.514822,-0.002316
2011.443339,-0.002309
2013.371856,-0.002294
2015.300373,-0.002269
2017.228890,-0.002261
2019.157407,-0.002294
2021.085924,-0.002351
2023.014441,-0.002401
2024.942958,-0.002421
2026.871475,-0.002409
2028.799993,-0.002384
2030.728510,-0.002365
2032.657027,-0.002360
2034.585544,-0.002375
2036.514061,-0.002397
2038.442578,-0.002396
2040.371095,-0.002368
2042.299612,-0.002356
2044.228129,-0.002383
2046.156646,-0.002415
2048.085164,-0.002417
2050.013681,-0.002406
2051.942198,-0.002412
2053.870715,-0.002432
2055.799232,-0.002443
2057.727749,-0.002431
2059.656266,-0.002414
2061.584783,-0.002420
2063.513300,-0.002442
2065.441818,-0.002458
2067.370335,-0.002467
2069.298852,-0.002471
2071.227369,-0.002466
2073.155886,-0.002456
2075.084403,-0.002456
2077.012920,-0.002468
2078.941437,-0.002484
2080.869954,-0.002502
2082.798471,-0.002522
2084.726989,-0.002541
2086.655506,-0.002553
2088.584023,-0.002547
2090.512540,-0.002533
2092.441057,-0.002533
2094.369574,-0.002539
2096.298091,-0.002535
2098.226608,-0.002528
2100.155125,-0.002525
2102.083642,-0.002526
2104.012160,-0.002538
2105.940677,-0.002558
2107.869194,-0.002571
2109.797711,-0.002569
2111.726228,-0.002564
2113.654745,-0.002560
2115.583262,-0.002562
2117.511779,-0.002574
2119.440296,-0.002586
2121.368814,-0.002578
2123.297331,-0.002554
2125.225848,-0.002553
2127.154365,-0.002588
2129.082882,-0.002627
2131.011399,-0.002651
2132.939916,-0.002671
2134.868433,-0.002687
2136.796950,-0.002686
2138.725467,-0.002672
2140.653985,-0.002658
2142.582502,-0.002648
2144.511019,-0.002641
2146.439536,-0.002642
2148.368053,-0.002667
2150.296570,-0.002712
2152.225087,-0.002753
2154.153604,-0.002760
2156.082121,-0.002740
2158.010638,-0.002723
2159.939156,-0.002726
2161.867673,-0.002744
2163.796190,-0.002751
2165.724707,-0.002737
2167.653224,-0.002721
2169.581741,-0.002719
2171.510258,-0.002725
2173.438775,-0.002734
2175.367292,-0.002746
2177.295810,-0.002756
2179.224327,-0.002757
2181.152844,-0.002754
2183.081361,-0.002757
2185.009878,-0.002768
2186.938395,-0.002777
2188.866912,-0.002779
2190.795429,-0.002778
2192.723946,-0.002782
2194.652463,-0.002784
2196.580981,-0.002766
2198.509498,-0.002743
2200.438015,-0.002747
2202.366532,-0.002786
2204.295049,-0.002832
2206.223566,-0.002857
2208.152083,-0.002863
2210.080600,-0.002868
2212.009117,-0.002873
2213.937634,-0.002867
2215.866152,-0.002845
2217.794669,-0.002822
2219.723186,-0.002809
2221.651703,-0.002804
2223.580220,-0.002810
2225.508737,-0.002831
2227.437254,-0.002847
2229.365771,-0.002833
2231.294288,-0.002809
2233.222806,-0.002816
2235.151323,-0.002858
2237.079840,-0.002896
2239.008357,-0.002898
2240.936874,-0.002876
2242.865391,-0.002853
2244.793908,-0.002840
2246.722425,-0.002843
2248.650942,-0.002853
2250.579459,-0.002849
2252.507977,-0.002829
2254.436494,-0.002823
2256.365011,-0.002851
2258.293528,-0.002897
2260.222045,-0.002929
2262.150562,-0.002921
2264.079079,-0.002888
2266.007596,-0.002864
2267.936113,-0.002852
2269.864630,-0.002836
2271.793148,-0.002820
2273.721665,-0.002816
2275.650182,-0.002825
2277.578699,-0.002843
2279.507216,-0.002861
2281.435733,-0.002878
2283.364250,-0.002899
2285.292767,-0.002935
2287.221284,-0.002988
2289.149801,-0.003038
2291.078319,-0.003070
2293.006836,-0.003096
2294.935353,-0.003131
2296.863870,-0.003170
2298.792387,-0.003202
2300.720904,-0.003229
2302.649421,-0.003273
2304.577938,-0.003362
2306.506455,-0.003480
2308.434973,-0.003571
2310.363490,-0.003611
2312.292007,-0.003632
2314.220524,-0.003690
2316.149041,-0.003831
2318.077558,-0.004049
2320.006075,-0.004255
2321.934592,-0.004347
2323.863109,-0.004313
2325.791626,-0.004241
2327.720144,-0.004235
2329.648661,-0.004299
2331.577178,-0.004361
2333.505695,-0.004396
2335.434212,-0.004454
2337.362729,-0.004591
2339.291246,-0.004799
2341.219763,-0.004947
2343.148280,-0.004874
2345.076797,-0.004616
2347.005315,-0.004407
2348.933832,-0.004392
2350.862349,-0.004545
2352.790866,-0.004808
2354.719383,-0.005121
2356.647900,-0.005373
2358.576417,-0.005482
2360.504934,-0.005481
2362.433451,-0.005402
2364.361969,-0.005206
2366.290486,-0.004907
2368.219003,-0.004628
2370.147520,-0.004447
2372.076037,-0.004295
2374.004554,-0.004110
2375.933071,-0.003916
2377.861588,-0.003742
2379.790105,-0.003581
2381.718622,-0.003448
2383.647140,-0.003362
2385.575657,-0.003316
2387.504174,-0.003281
2389.432691,-0.003244
2391.361208,-0.003225
2393.289725,-0.003225
2395.218242,-0.003231
2397.146759,-0.003239
2399.075276,-0.003251
2401.003793,-0.003262
2402.932311,-0.003275
2404.860828,-0.003295
2406.789345,-0.003316
2408.717862,-0.003335
2410.646379,-0.003359
2412.574896,-0.003390
2414.503413,-0.003410
2416.431930,-0.003409
2418.360447,-0.003391
2420.288965,-0.003378
2422.217482,-0.003397
2424.145999,-0.003445
2426.074516,-0.003490
2428.003033,-0.003508
2429.931550,-0.003493
2431.860067,-0.003454
2433.788584,-0.003424
2435.717101,-0.003438
2437.645618,-0.003474
2439.574136,-0.003480
2441.502653,-0.003440
2443.431170,-0.003399
2445.359687,-0.003399
2447.288204,-0.003416
2449.216721,-0.003410
2451.145238,-0.003404
2453.073755,-0.003449
2455.002272,-0.003544
2456.930789,-0.003634
2458.859307,-0.003672
2460.787824,-0.003659
2462.716341,-0.003619
2464.644858,-0.003566
2466.573375,-0.003522
2468.501892,-0.003507
2470.430409,-0.003509
2472.358926,-0.003510
2474.287443,-0.003519
2476.215961,-0.003552
2478.144478,-0.003589
2480.072995,-0.003594
2482.001512,-0.003562
2483.930029,-0.003520
2485.858546,-0.003495
2487.787063,-0.003503
2489.715580,-0.003539
2491.644097,-0.003583
2493.572614,-0.003617
2495.501132,-0.003650
2497.429649,-0.003683
2499.358166,-0.003690
2501.286683,-0.003654
2503.215200,-0.003609
2505.143717,-0.003593
2507.072234,-0.003608
2509.000751,-0.003632
2510.929268,-0.003649
2512.857785,-0.003658
2514.786303,-0.003665
2516.714820,-0.003660
2518.643337,-0.003638
2520.571854,-0.003612
2522.500371,-0.003598
2524.428888,-0.003603
2526.357405,-0.003633
2528.285922,-0.003668
2530.214439,-0.003680
2532.142956,-0.003670
2534.071474,-0.003668
2535.999991,-0.003683
2537.928508,-0.003697
2539.857025,-0.003710
2541.785542,-0.003728
2543.714059,-0.003741
2545.642576,-0.003751
2547.571093,-0.003763
2549.499610,-0.003765
2551.428128,-0.003758
2553.356645,-0.003750
2555.285162,-0.003749
2557.213679,-0.003774
2559.142196,-0.003816
2561.070713,-0.003834
2562.999230,-0.003813
2564.927747,-0.003783
2566.856264,-0.003778
2568.784781,-0.003805
2570.713299,-0.003831
2572.641816,-0.003816
2574.570333,-0.003764
2576.498850,-0.003730
2578.427367,-0.003758
2580.355884,-0.003826
2582.284401,-0.003875
2584.212918,-0.003889
2586.141435,-0.003870
2588.069952,-0.003828
2589.998470,-0.003799
2591.926987,-0.003806
2593.855504,-0.003822
2595.784021,-0.003832
2597.712538,-0.003849
2599.641055,-0.003886
2601.569572,-0.003942
2603.498089,-0.003993
2605.426606,-0.004003
2607.355124,-0.003965
2609.283641,-0.003912
2611.212158,-0.003878
2613.140675,-0.003866
2615.069192,-0.003874
2616.997709,-0.003922
2618.926226,-0.003990
2620.854743,-0.004014
2622.783260,-0.003989
2624.711777,-0.003971
2626.640295,-0.003976
2628.568812,-0.003972
2630.497329,-0.003952
2632.425846,-0.003945
2634.354363,-0.003962
2636.282880,-0.003974
2638.211397,-0.003962
2640.139914,-0.003962
2642.068431,-0.003991
2643.996948,-0.004007
2645.925466,-0.003990
2647.853983,-0.003966
2649.782500,-0.003959
2651.711017,-0.003981
2653.639534,-0.004034
2655.568051,-0.004096
2657.496568,-0.004136
2659.425085,-0.004125
2661.353602,-0.004071
2663.282120,-0.004022
2665.210637,-0.004020
2667.139154,-0.004055
2669.067671,-0.004088
2670.996188,-0.004093
2672.924705,-0.004070
2674.853222,-0.004042
2676.781739,-0.004048
2678.710256,-0.004100
2680.638773,-0.004165
2682.567291,-0.004201
2684.495808,-0.004206
2686.424325,-0.004188
2688.352842,-0.004156
2690.281359,-0.004130
2692.209876,-0.004131
2694.138393,-0.004161
2696.066910,-0.004212
2697.995427,-0.004260
2699.923944,-0.004263
2701.852462,-0.004221
2703.780979,-0.004180
2705.709496,-0.004168
2707.638013,-0.004175
2709.566530,-0.004173
2711.495047,-0.004154
2713.423564,-0.004159
2715.352081,-0.004210
2717.280598,-0.004253
2719.209116,-0.004241
2721.137633,-0.004209
2723.066150,-0.004204
2724.994667,-0.004218
2726.923184,-0.004215
2728.851701,-0.004198
2730.780218,-0.004202
2732.708735,-0.004238
2734.637252,-0.004263
2736.565769,-0.004241
2738.494287,-0.004189
2740.422804,-0.004155
2742.351321,-0.004169
2744.279838,-0.004218
2746.208355,-0.004266
2748.136872,-0.004309
2750.065389,-0.004361
2751.993906,-0.004413
2753.922423,-0.004441
2755.850940,-0.004435
2757.779458,-0.004405
2759.707975,-0.004370
2761.636492,-0.004357
2763.565009,-0.004361
2765.493526,-0.004354
2767.422043,-0.004341
2769.350560,-0.004346
2771.279077,-0.004366
2773.207594,-0.004376
2775.136111,-0.004383
2777.064629,-0.004406
2778.993146,-0.004435
2780.921663,-0.004451
2782.850180,-0.004464
2784.778697,-0.004466
2786.707214,-0.004427
2788.635731,-0.004369
2790.564248,-0.004368
2792.492765,-0.004436
2794.421283,-0.004502
2796.349800,-0.004514
2798.278317,-0.004490
2800.206834,-0.004470
2802.135351,-0.004470
2804.063868,-0.004471
2805.992385,-0.004456
2807.920902,-0.004434
2809.849419,-0.004421
2811.777936,-0.004431
2813.706454,-0.004481
2815.634971,-0.004549
2817.563488,-0.004558
2819.492005,-0.004468
2821.420522,-0.004351
2823.349039,-0.004299
2825.277556,-0.004306
2827.206073,-0.004315
2829.134590,-0.004311
2831.063107,-0.004312
2832.991625,-0.004317
2834.920142,-0.004293
2836.848659,-0.004201
2838.777176,-0.004056
2840.705693,-0.003919
2842.634210,-0.003813
2844.562727,-0.003712
2846.491244,-0.003607
2848.419761,-0.003530
2850.348279,-0.003483
2852.276796,-0.003398
2854.205313,-0.003217
2856.133830,-0.002999
2858.062347,-0.002852
2859.990864,-0.002767
2861.919381,-0.002650
2863.847898,-0.002484
2865.776415,-0.002324
2867.704932,-0.002173
2869.633450,-0.002027
2871.561967,-0.001936
2873.490484,-0.001962
2875.419001,-0.002107
2877.347518,-0.002315
2879.276035,-0.002534
2881.204552,-0.002737
2883.133069,-0.002893
2885.061586,-0.002963
2886.990103,-0.002947
2888.918621,-0.002865
2890.847138,-0.002720
2892.775655,-0.002543
2894.704172,-0.002411
2896.632689,-0.002351
2898.561206,-0.002311
2900.489723,-0.002214
2902.418240,-0.002026
2904.346757,-0.001822
2906.275275,-0.001713
2908.203792,-0.001689
2910.132309,-0.001646
2912.060826,-0.001539
2913.989343,-0.001428
2915.917860,-0.001382
2917.846377,-0.001379
2919.774894,-0.001343
2921.703411,-0.001242
2923.631928,-0.001086
2925.560446,-0.000893
2927.488963,-0.000718
2929.417480,-0.000598
2931.345997,-0.000512
2933.274514,-0.000474
2935.203031,-0.000565
2937.131548,-0.000793
2939.060065,-0.001040
2940.988582,-0.001178
2942.917099,-0.001163
2944.845617,-0.001014
2946.774134,-0.000757
2948.702651,-0.000393
2950.631168,0.000068
2952.559685,0.000575
2954.488202,0.001045
2956.416719,0.001363
2958.345236,0.001451
2960.273753,0.001323
2962.202271,0.001034
2964.130788,0.000624
2966.059305,0.000135
2967.987822,-0.000403
2969.916339,-0.000954
2971.844856,-0.001452
2973.773373,-0.001863
2975.701890,-0.002213
2977.630407,-0.002541
2979.558924,-0.002870
2981.487442,-0.003191
2983.415959,-0.003473
2985.344476,-0.003688
2987.272993,-0.003836
2989.201510,-0.003948
2991.130027,-0.004054
2993.058544,-0.004150
2994.987061,-0.004210
2996.915578,-0.004237
2998.844095,-0.004274
3000.772613,-0.004331
3002.701130,-0.004371
3004.629647,-0.004389
3006.558164,-0.004411
3008.486681,-0.004436
3010.415198,-0.004462
3012.343715,-0.004507
3014.272232,-0.004579
3016.200749,-0.004674
3018.129267,-0.004763
3020.057784,-0.004807
3021.986301,-0.004798
3023.914818,-0.004771
3025.843335,-0.004738
3027.771852,-0.004685
3029.700369,-0.004619
3031.628886,-0.004582
3033.557403,-0.004600
3035.485920,-0.004643
3037.414438,-0.004667
3039.342955,-0.004657
3041.271472,-0.004642
3043.199989,-0.004670
3045.128506,-0.004740
3047.057023,-0.004789
3048.985540,-0.004796
3050.914057,-0.004800
3052.842574,-0.004811
3054.771091,-0.004828
3056.699609,-0.004868
3058.628126,-0.004898
3060.556643,-0.004869
3062.485160,-0.004791
3064.413677,-0.004724
3066.342194,-0.004718
3068.270711,-0.004750
3070.199228,-0.004775
3072.127745,-0.004820
3074.056262,-0.004903
3075.984780,-0.004947
3077.913297,-0.004915
3079.841814,-0.004884
3081.770331,-0.004905
3083.698848,-0.004953
3085.627365,-0.004989
3087.555882,-0.005009
3089.484399,-0.005032
3091.412916,-0.005063
3093.341434,-0.005094
3095.269951,-0.005137
3097.198468,-0.005186
3099.126985,-0.005195
3101.055502,-0.005137
3102.984019,-0.005053
3104.912536,-0.005007
3106.841053,-0.005017
3108.769570,-0.005064
3110.698087,-0.005127
3112.626605,-0.005157
3114.555122,-0.005118
3116.483639,-0.005064
3118.412156,-0.005056
3120.340673,-0.005087
3122.269190,-0.005137
3124.197707,-0.005205
3126.126224,-0.005291
3128.054741,-0.005385
3129.983258,-0.005441
3131.911776,-0.005405
3133.840293,-0.005312
3135.768810,-0.005255
3137.697327,-0.005265
3139.625844,-0.005300
3141.554361,-0.005316
3143.482878,-0.005307
3145.411395,-0.005305
3147.339912,-0.005326
3149.268430,-0.005354
3151.196947,-0.005366
3153.125464,-0.005369
3155.053981,-0.005368
3156.982498,-0.005367
3158.911015,-0.005384
3160.839532,-0.005420
3162.768049,-0.005443
3164.696566,-0.005444
3166.625083,-0.005441
3168.553601,-0.005442
3170.482118,-0.005454
3172.410635,-0.005456
3174.339152,-0.005408
3176.267669,-0.005344
3178.196186,-0.005344
3180.124703,-0.005410
3182.053220,-0.005477
3183.981737,-0.005507
3185.910254,-0.005515
3187.838772,-0.005543
3189.767289,-0.005586
3191.695806,-0.005591
3193.624323,-0.005530
3195.552840,-0.005454
3197.481357,-0.005460
3199.409874,-0.005590
3201.338391,-0.005732
3203.266908,-0.005731
3205.195426,-0.005599
3207.123943,-0.005500
3209.052460,-0.005522
3210.980977,-0.005586
3212.909494,-0.005598
3214.838011,-0.005551
3216.766528,-0.005485
3218.695045,-0.005433
3220.623562,-0.005434
3222.552079,-0.005512
3224.480597,-0.005600
3226.409114,-0.005630
3228.337631,-0.005653
3230.266148,-0.005718
3232.194665,-0.005772
3234.123182,-0.005760
3236.051699,-0.005708
3237.980216,-0.005678
3239.908733,-0.005699
3241.837250,-0.005752
3243.765768,-0.005809
3245.694285,-0.005856
3247.622802,-0.005861
3249.551319,-0.005813
3251.479836,-0.005775
3253.408353,-0.005794
3255.336870,-0.005816
3257.265387,-0.005805
3259.193904,-0.005775
3261.122422,-0.005729
3263.050939,-0.005698
3264.979456,-0.005714
3266.907973,-0.005732
3268.836490,-0.005707
3270.765007,-0.005674
3272.693524,-0.005688
3274.622041,-0.005739
3276.550558,-0.005778
3278.479075,-0.005801
3280.407593,-0.005826
3282.336110,-0.005872
3284.264627,-0.005955
3286.193144,-0.006039
3288.121661,-0.006052
3290.050178,-0.006010
3291.978695,-0.005973
3293.907212,-0.005917
3295.835729,-0.005821
3297.764246,-0.005757
3299.692764,-0.005775
3301.621281,-0.005816
3303.549798,-0.005809
3305.478315,-0.005749
3307.406832,-0.005688
3309.335349,-0.005678
3311.263866,-0.005723
3313.192383,-0.005766
3315.120900,-0.005744
3317.049417,-0.005678
3318.977935,-0.005658
3320.906452,-0.005693
3322.834969,-0.005709
3324.763486,-0.005705
3326.692003,-0.005744
3328.620520,-0.005801
3330.549037,-0.005798
3332.477554,-0.005731
3334.406071,-0.005680
3336.334589,-0.005695
3338.263106,-0.005756
3340.191623,-0.005828
3342.120140,-0.005909
3344.048657,-0.005974
3345.977174,-0.005981
3347.905691,-0.005948
3349.834208,-0.005941
3351.762725,-0.005958
3353.691242,-0.005961
3355.619760,-0.005962
3357.548277,-0.005965
3359.476794,-0.005940
3361.405311,-0.005917
3363.333828,-0.005939
3365.262345,-0.005967
3367.190862,-0.005973
3369.119379,-0.006003
3371.047896,-0.006073
3372.976413,-0.006161
3374.904931,-0.006270
3376.833448,-0.006396
3378.761965,-0.006467
3380.690482,-0.006413
3382.618999,-0.006274
3384.547516,-0.006158
3386.476033,-0.006103
3388.404550,-0.006071
3390.333067,-0.006050
3392.261585,-0.006065
3394.190102,-0.006116
3396.118619,-0.006177
3398.047136,-0.006226
3399.975653,-0.006246
3401.904170,-0.006267
3403.832687,-0.006300
3405.761204,-0.006298
3407.689721,-0.006271
3409.618238,-0.006301
3411.546756,-0.006382
3413.475273,-0.006412
3415.403790,-0.006344
3417.332307,-0.006212
3419.260824,-0.006069
3421.189341,-0.006016
3423.117858,-0.006107
3425.046375,-0.006237
3426.974892,-0.006287
3428.903409,-0.006277
3430.831927,-0.006309
3432.760444,-0.006407
3434.688961,-0.006474
3436.617478,-0.006442
3438.545995,-0.006335
3440.474512,-0.006191
3442.403029,-0.006059
3444.331546,-0.006015
3446.260063,-0.006081
3448.188581,-0.006199
3450.117098,-0.006311
3452.045615,-0.006398
3453.974132,-0.006445
3455.902649,-0.006432
3457.831166,-0.006387
3459.759683,-0.006369
3461.688200,-0.006400
3463.616717,-0.006457
3465.545234,-0.006504
3467.473752,-0.006542
3469.402269,-0.006609
3471.330786,-0.006673
3473.259303,-0.006664
3475.187820,-0.006600
3477.116337,-0.006513
3479.044854,-0.006387
3480.973371,-0.006264
3482.901888,-0.006257
3484.830405,-0.006377
3486.758923,-0.006509
3488.687440,-0.006565
3490.615957,-0.006564
3492.544474,-0.006558
3494.472991,-0.006549
3496.401508,-0.006533
3498.330025,-0.006502
3500.258542,-0.006415
3502.187059,-0.006289
3504.115577,-0.006206
3506.044094,-0.006190
3507.972611,-0.006217
3509.901128,-0.006298
3511.829645,-0.006402
3513.758162,-0.006465
3515.686679,-0.006490
3517.615196,-0.006504
3519.543713,-0.006454
3521.472230,-0.006295
3523.400748,-0.006122
3525.329265,-0.006067
3527.257782,-0.006127
3529.186299,-0.006237
3531.114816,-0.006323
3533.043333,-0.006341
3534.971850,-0.006355
3536.900367,-0.006453
3538.828884,-0.006555
3540.757401,-0.006471
3542.685919,-0.006180
3544.614436,-0.005921
3546.542953,-0.005922
3548.471470,-0.006065
3550.399987,-0.006187
3552.328504,-0.006325
3554.257021,-0.006466
3556.185538,-0.006500
3558.114055,-0.006455
3560.042572,-0.006405
3561.971090,-0.006266
3563.899607,-0.005957
3565.828124,-0.005713
3567.756641,-0.005887
3569.685158,-0.006267
3571.613675,-0.006518
3573.542192,-0.006611
3575.470709,-0.006603
3577.399226,-0.006571
3579.327744,-0.006583
3581.256261,-0.006612
3583.184778,-0.006537
3585.113295,-0.006288
3587.041812,-0.006040
3588.970329,-0.006069
3590.898846,-0.006198
3592.827363,-0.006183
3594.755880,-0.006062
3596.684397,-0.005975
3598.612915,-0.005962
3600.541432,-0.006044
3602.469949,-0.006167
3604.398466,-0.006160
3606.326983,-0.005956
3608.255500,-0.005753
3610.184017,-0.005724
3612.112534,-0.005737
3614.041051,-0.005674
3615.969568,-0.005556
3617.898086,-0.005505
3619.826603,-0.005782
3621.755120,-0.006287
3623.683637,-0.006596
3625.612154,-0.006489
3627.540671,-0.006021
3629.469188,-0.005690
3631.397705,-0.005820
3633.326222,-0.006094
3635.254740,-0.006344
3637.183257,-0.006568
3639.111774,-0.006702
3641.040291,-0.006632
3642.968808,-0.006329
3644.897325,-0.005825
3646.825842,-0.005194
3648.754359,-0.004927
3650.682876,-0.005369
3652.611393,-0.005818
3654.539911,-0.006056
3656.468428,-0.006260
3658.396945,-0.006469
3660.325462,-0.006579
3662.253979,-0.006572
3664.182496,-0.006495
3666.111013,-0.006303
3668.039530,-0.005895
3669.968047,-0.005422
3671.896564,-0.005237
3673.825082,-0.005316
3675.753599,-0.005577
3677.682116,-0.005956
3679.610633,-0.006260
3681.539150,-0.006431
3683.467667,-0.006458
3685.396184,-0.006295
3687.324701,-0.005963
3689.253218,-0.005812
3691.181736,-0.006119
3693.110253,-0.006494
3695.038770,-0.006709
3696.967287,-0.006802
3698.895804,-0.006766
3700.824321,-0.006610
3702.752838,-0.006487
3704.681355,-0.006474
3706.609872,-0.006434
3708.538389,-0.006223
3710.466907,-0.005928
3712.395424,-0.005904
3714.323941,-0.006119
3716.252458,-0.006304
3718.180975,-0.006385
3720.109492,-0.006350
3722.038009,-0.006199
3723.966526,-0.006072
3725.895043,-0.006163
3727.823560,-0.006378
3729.752078,-0.006404
3731.680595,-0.006025
3733.609112,-0.005395
3735.537629,-0.005174
3737.466146,-0.005490
3739.394663,-0.005774
3741.323180,-0.005778
3743.251697,-0.005506
3745.180214,-0.005135
3747.108732,-0.004851
3749.037249,-0.004674
3750.965766,-0.004815
3752.894283,-0.005242
3754.822800,-0.005561
3756.751317,-0.005750
3758.679834,-0.006009
3760.608351,-0.006336
3762.536868,-0.006509
3764.465385,-0.006456
3766.393903,-0.006305
3768.322420,-0.006275
3770.250937,-0.006505
3772.179454,-0.006864
3774.107971,-0.007076
3776.036488,-0.007035
3777.965005,-0.006884
3779.893522,-0.006846
3781.822039,-0.006878
3783.750556,-0.006872
3785.679074,-0.006921
3787.607591,-0.007038
3789.536108,-0.007092
3791.464625,-0.007045
3793.393142,-0.006893
3795.321659,-0.006559
3797.250176,-0.006047
3799.178693,-0.005558
3801.107210,-0.005434
3803.035728,-0.005793
3804.964245,-0.006259
3806.892762,-0.006622
3808.821279,-0.006914
3810.749796,-0.007105
3812.678313,-0.007116
3814.606830,-0.006888
3816.535347,-0.006433
3818.463864,-0.005897
3820.392381,-0.005588
3822.320899,-0.005729
3824.249416,-0.006085
3826.177933,-0.006408
3828.106450,-0.006595
3830.034967,-0.006561
3831.963484,-0.006325
3833.892001,-0.006011
3835.820518,-0.005698
3837.749035,-0.005451
3839.677552,-0.005463
3841.606070,-0.005830
3843.534587,-0.006355
3845.463104,-0.006727
3847.391621,-0.006748
3849.320138,-0.006375
3851.248655,-0.005688
3853.177172,-0.005247
3855.105689,-0.005657
3857.034206,-0.006283
3858.962723,-0.006619
3860.891241,-0.006574
3862.819758,-0.006336
3864.748275,-0.006246
3866.676792,-0.006243
3868.605309,-0.006109
3870.533826,-0.006017
3872.462343,-0.006214
3874.390860,-0.006586
3876.319377,-0.006887
3878.247895,-0.006981
3880.176412,-0.006865
3882.104929,-0.006668
3884.033446,-0.006561
3885.961963,-0.006629
3887.890480,-0.006781
3889.818997,-0.006887
3891.747514,-0.006992
3893.676031,-0.007123
3895.604548,-0.007121
3897.533066,-0.006898
3899.461583,-0.006587
3901.390100,-0.006424
3903.318617,-0.006525
3905.247134,-0.006829
3907.175651,-0.007153
3909.104168,-0.007388
3911.032685,-0.007516
3912.961202,-0.007498
3914.889719,-0.007329
3916.818237,-0.007199
3918.746754,-0.007264
3920.675271,-0.007316
3922.603788,-0.007171
3924.532305,-0.007018
3926.460822,-0.007059
3928.389339,-0.007173
3930.317856,-0.007224
3932.246373,-0.007290
3934.174891,-0.007445
3936.103408,-0.007592
3938.031925,-0.007614
3939.960442,-0.007519
3941.888959,-0.007427
3943.817476,-0.007394
3945.745993,-0.007357
3947.674510,-0.007333
3949.603027,-0.007426
3951.531544,-0.007591
3953.460062,-0.007688
3955.388579,-0.007710
3957.317096,-0.007747
3959.245613,-0.007814
3961.174130,-0.007849
3963.102647,-0.007860
3965.031164,-0.007909
3966.959681,-0.007967
3968.888198,-0.007927
3970.816715,-0.007737
3972.745233,-0.007499
3974.673750,-0.007434
3976.602267,-0.007626
3978.530784,-0.007872
3980.459301,-0.007941
3982.387818,-0.007857
3984.316335,-0.007779
3986.244852,-0.007787
3988.173369,-0.007866
3990.101887,-0.007955
3992.030404,-0.007995
3993.958921,-0.008005
3995.887438,-0.008029
3997.815955,-0.008079
3999.744472,-0.008140
4001.672989,-0.008150
