XLabel,Wavenumber
YLabel,Absorbance
FileType,Absorbance
DisplayDirection,20300
PeakDirection,20312
649.910264,-0.000141
651.838781,-0.000127
653.767298,-0.000082
655.695815,-0.000058
657.624332,-0.000067
659.552849,-0.000080
661.481366,-0.000061
663.409883,-0.000000
665.338401,0.000058
667.266918,0.000033
669.195435,-0.000060
671.123952,-0.000097
673.052469,-0.000084
674.980986,-0.000070
676.909503,-0.000067
678.838020,-0.000078
680.766537,-0.000092
682.695055,-0.000087
684.623572,-0.000079
686.552089,-0.000116
688.480606,-0.000191
690.409123,-0.000229
692.337640,-0.000200
694.266157,-0.000163
696.194674,-0.000175
698.123191,-0.000205
700.051708,-0.000192
701.980226,-0.000106
703.908743,0.000061
705.837260,0.000306
707.765777,0.000610
709.694294,0.000887
711.622811,0.001022
713.551328,0.000971
715.479845,0.000781
717.408362,0.000528
719.336879,0.000290
721.265397,0.000125
723.193914,0.000037
725.122431,-0.000012
727.050948,-0.000055
728.979465,-0.000092
730.907982,-0.000104
732.836499,-0.000096
734.765016,-0.000087
736.693533,-0.000065
738.622051,-0.000024
740.550568,-0.000007
742.479085,-0.000039
744.407602,-0.000082
746.336119,-0.000101
748.264636,-0.000096
750.193153,-0.000075
752.121670,-0.000056
754.050187,-0.000057
755.978704,-0.000062
757.907222,-0.000053
759.835739,-0.000049
761.764256,-0.000072
763.692773,-0.000108
765.621290,-0.000117
767.549807,-0.000084
769.478324,-0.000045
771.406841,-0.000037
773.335358,-0.000037
775.263875,-0.000017
777.192393,-0.000008
779.120910,-0.000042
781.049427,-0.000098
782.977944,-0.000135
784.906461,-0.000145
786.834978,-0.000142
788.763495,-0.000139
790.692012,-0.000139
792.620529,-0.000159
794.549047,-0.000195
796.477564,-0.000213
798.406081,-0.000195
800.334598,-0.000177
802.263115,-0.000192
804.191632,-0.000224
806.120149,-0.000249
808.048666,-0.000269
809.977183,-0.000284
811.905700,-0.000303
813.834218,-0.000339
815.762735,-0.000372
817.691252,-0.000348
819.619769,-0.000270
821.548286,-0.000212
823.476803,-0.000223
825.405320,-0.000271
827.333837,-0.000302
829.262354,-0.000289
831.190871,-0.000251
833.119389,-0.000226
835.047906,-0.000231
836.976423,-0.000248
838.904940,-0.000251
840.833457,-0.000229
842.761974,-0.000194
844.690491,-0.000163
846.619008,-0.000148
848.547525,-0.000157
850.476043,-0.000181
852.404560,-0.000190
854.333077,-0.000182
856.261594,-0.000183
858.190111,-0.000184
860.118628,-0.000167
862.047145,-0.000144
863.975662,-0.000130
865.904179,-0.000134
867.832696,-0.000162
869.761214,-0.000189
871.689731,-0.000171
873.618248,-0.000122
875.546765,-0.000095
877.475282,-0.000094
879.403799,-0.000083
881.332316,-0.000063
883.260833,-0.000073
885.189350,-0.000116
887.117867,-0.000144
889.046385,-0.000131
890.974902,-0.000096
892.903419,-0.000088
894.831936,-0.000126
896.760453,-0.000177
898.688970,-0.000207
900.617487,-0.000224
902.546004,-0.000228
904.474521,-0.000207
906.403039,-0.000191
908.331556,-0.000211
910.260073,-0.000243
912.188590,-0.000240
914.117107,-0.000204
916.045624,-0.000187
917.974141,-0.000219
919.902658,-0.000258
921.831175,-0.000256
923.759692,-0.000226
925.688210,-0.000210
927.616727,-0.000217
929.545244,-0.000216
931.473761,-0.000186
933.402278,-0.000145
935.330795,-0.000140
937.259312,-0.000185
939.187829,-0.000240
941.116346,-0.000252
943.044863,-0.000223
944.973381,-0.000194
946.901898,-0.000182
948.830415,-0.000180
950.758932,-0.000191
952.687449,-0.000209
954.615966,-0.000215
956.544483,-0.000199
958.473000,-0.000182
960.401517,-0.000173
962.330034,-0.000151
964.258552,-0.000102
966.187069,-0.000047
968.115586,-0.000022
970.044103,-0.000035
971.972620,-0.000066
973.901137,-0.000084
975.829654,-0.000085
977.758171,-0.000082
979.686688,-0.000081
981.615206,-0.000088
983.543723,-0.000108
985.472240,-0.000124
987.400757,-0.000121
989.329274,-0.000120
991.257791,-0.000137
993.186308,-0.000153
995.114825,-0.000150
997.043342,-0.000137
998.971859,-0.000129
1000.900377,-0.000133
1002.828894,-0.000144
1004.757411,-0.000153
1006.685928,-0.000148
1008.614445,-0.000131
1010.542962,-0.000120
1012.471479,-0.000128
1014.399996,-0.000147
1016.328513,-0.000156
1018.257030,-0.000151
1020.185548,-0.000141
1022.114065,-0.000106
1024.042582,-0.000018
1025.971099,0.000072
1027.899616,0.000069
1029.828133,-0.000043
1031.756650,-0.000186
1033.685167,-0.000288
1035.613684,-0.000336
1037.542202,-0.000355
1039.470719,-0.000368
1041.399236,-0.000373
1043.327753,-0.000374
1045.256270,-0.000383
1047.184787,-0.000400
1049.113304,-0.000402
1051.041821,-0.000377
1052.970338,-0.000350
1054.898855,-0.000355
1056.827373,-0.000391
1058.755890,-0.000412
1060.684407,-0.000372
1062.612924,-0.000292
1064.541441,-0.000217
1066.469958,-0.000126
1068.398475,-0.000005
1070.326992,0.000057
1072.255509,-0.000022
1074.184026,-0.000171
1076.112544,-0.000271
1078.041061,-0.000294
1079.969578,-0.000281
1081.898095,-0.000271
1083.826612,-0.000254
1085.755129,-0.000213
1087.683646,-0.000168
1089.612163,-0.000130
1091.540680,-0.000085
1093.469198,-0.000034
1095.397715,0.000018
1097.326232,0.000072
1099.254749,0.000104
1101.183266,0.000098
1103.111783,0.000118
1105.040300,0.000245
1106.968817,0.000497
1108.897334,0.000791
1110.825851,0.000979
1112.754369,0.001017
1114.682886,0.001005
1116.611403,0.000994
1118.539920,0.000918
1120.468437,0.000710
1122.396954,0.000418
1124.325471,0.000172
1126.253988,0.000046
1128.182505,-0.000025
1130.111022,-0.000143
1132.039540,-0.000272
1133.968057,-0.000285
1135.896574,-0.000190
1137.825091,-0.000142
1139.753608,-0.000189
1141.682125,-0.000228
1143.610642,-0.000197
1145.539159,-0.000162
1147.467676,-0.000179
1149.396194,-0.000224
1151.324711,-0.000254
1153.253228,-0.000250
1155.181745,-0.000224
1157.110262,-0.000221
1159.038779,-0.000262
1160.967296,-0.000329
1162.895813,-0.000377
1164.824330,-0.000360
1166.752847,-0.000285
1168.681365,-0.000205
1170.609882,-0.000145
1172.538399,-0.000084
1174.466916,-0.000020
1176.395433,-0.000008
1178.323950,-0.000083
1180.252467,-0.000197
1182.180984,-0.000280
1184.109501,-0.000303
1186.038018,-0.000283
1187.966536,-0.000253
1189.895053,-0.000247
1191.823570,-0.000280
1193.752087,-0.000368
1195.680604,-0.000461
1197.609121,-0.000444
1199.537638,-0.000318
1201.466155,-0.000234
1203.394672,-0.000239
1205.323189,-0.000238
1207.251707,-0.000216
1209.180224,-0.000233
1211.108741,-0.000277
1213.037258,-0.000274
1214.965775,-0.000214
1216.894292,-0.000179
1218.822809,-0.000211
1220.751326,-0.000267
1222.679843,-0.000299
1224.608361,-0.000295
1226.536878,-0.000271
1228.465395,-0.000248
1230.393912,-0.000230
1232.322429,-0.000201
1234.250946,-0.000174
1236.179463,-0.000167
1238.107980,-0.000160
1240.036497,-0.000111
1241.965014,-0.000016
1243.893532,0.000077
1245.822049,0.000122
1247.750566,0.000117
1249.679083,0.000091
1251.607600,0.000085
1253.536117,0.000111
1255.464634,0.000146
1257.393151,0.000181
1259.321668,0.000252
1261.250185,0.000393
1263.178703,0.000630
1265.107220,0.000981
1267.035737,0.001454
1268.964254,0.002024
1270.892771,0.002598
1272.821288,0.003018
1274.749805,0.003174
1276.678322,0.003045
1278.606839,0.002689
1280.535357,0.002218
1282.463874,0.001715
1284.392391,0.001225
1286.320908,0.000807
1288.249425,0.000508
1290.177942,0.000329
1292.106459,0.000236
1294.034976,0.000167
1295.963493,0.000081
1297.892010,-0.000001
1299.820528,-0.000047
1301.749045,-0.000068
1303.677562,-0.000078
1305.606079,-0.000086
1307.534596,-0.000076
1309.463113,-0.000003
1311.391630,0.000140
1313.320147,0.000286
1315.248664,0.000333
1317.177181,0.000254
1319.105699,0.000120
1321.034216,0.000005
1322.962733,-0.000075
1324.891250,-0.000121
1326.819767,-0.000140
1328.748284,-0.000153
1330.676801,-0.000171
1332.605318,-0.000179
1334.533835,-0.000161
1336.462353,-0.000116
1338.390870,-0.000077
1340.319387,-0.000106
1342.247904,-0.000190
1344.176421,-0.000257
1346.104938,-0.000276
1348.033455,-0.000270
1349.961972,-0.000272
1351.890489,-0.000288
1353.819006,-0.000304
1355.747524,-0.000313
1357.676041,-0.000305
1359.604558,-0.000268
1361.533075,-0.000207
1363.461592,-0.000163
1365.390109,-0.000152
1367.318626,-0.000139
1369.247143,-0.000117
1371.175660,-0.000088
1373.104177,-0.000052
1375.032695,-0.000024
1376.961212,-0.000016
1378.889729,-0.000011
1380.818246,-0.000009
1382.746763,-0.000020
1384.675280,-0.000038
1386.603797,-0.000063
1388.532314,-0.000112
1390.460831,-0.000175
1392.389349,-0.000219
1394.317866,-0.000219
1396.246383,-0.000196
1398.174900,-0.000215
1400.103417,-0.000264
1402.031934,-0.000285
1403.960451,-0.000293
1405.888968,-0.000337
1407.817485,-0.000395
1409.746002,-0.000412
1411.674520,-0.000392
1413.603037,-0.000364
1415.531554,-0.000320
1417.460071,-0.000247
1419.388588,-0.000197
1421.317105,-0.000226
1423.245622,-0.000297
1425.174139,-0.000354
1427.102656,-0.000364
1429.031173,-0.000325
1430.959691,-0.000273
1432.888208,-0.000240
1434.816725,-0.000212
1436.745242,-0.000180
1438.673759,-0.000171
1440.602276,-0.000185
1442.530793,-0.000191
1444.459310,-0.000150
1446.387827,-0.000017
1448.316344,0.000188
1450.244862,0.000366
1452.173379,0.000476
1454.101896,0.000554
1456.030413,0.000625
1457.958930,0.000602
1459.887447,0.000505
1461.815964,0.000440
1463.744481,0.000392
1465.672998,0.000319
1467.601516,0.000249
1469.530033,0.000218
1471.458550,0.000204
1473.387067,0.000135
1475.315584,-0.000004
1477.244101,-0.000132
1479.172618,-0.000214
1481.101135,-0.000257
1483.029652,-0.000266
1484.958169,-0.000237
1486.886687,-0.000178
1488.815204,-0.000129
1490.743721,-0.000139
1492.672238,-0.000182
1494.600755,-0.000222
1496.529272,-0.000252
1498.457789,-0.000289
1500.386306,-0.000338
1502.314823,-0.000364
1504.243340,-0.000299
1506.171858,-0.000087
1508.100375,0.000006
1510.028892,-0.000166
1511.957409,-0.000300
1513.885926,-0.000329
1515.814443,-0.000304
1517.742960,-0.000288
1519.671477,-0.000267
1521.599994,-0.000215
1523.528512,-0.000195
1525.457029,-0.000232
1527.385546,-0.000297
1529.314063,-0.000352
1531.242580,-0.000362
1533.171097,-0.000328
1535.099614,-0.000294
1537.028131,-0.000249
1538.956648,-0.000131
1540.885165,0.000008
1542.813683,-0.000030
1544.742200,-0.000156
1546.670717,-0.000254
1548.599234,-0.000306
1550.527751,-0.000329
1552.456268,-0.000328
1554.384785,-0.000272
1556.313302,-0.000126
1558.241819,0.000003
1560.170336,-0.000126
1562.098854,-0.000284
1564.027371,-0.000345
1565.955888,-0.000354
1567.884405,-0.000365
1569.812922,-0.000408
1571.741439,-0.000442
1573.669956,-0.000418
1575.598473,-0.000367
1577.526990,-0.000380
1579.455508,-0.000440
1581.384025,-0.000479
1583.312542,-0.000493
1585.241059,-0.000504
1587.169576,-0.000523
1589.098093,-0.000555
1591.026610,-0.000599
1592.955127,-0.000632
1594.883644,-0.000623
1596.812161,-0.000576
1598.740679,-0.000510
1600.669196,-0.000442
1602.597713,-0.000407
1604.526230,-0.000426
1606.454747,-0.000472
1608.383264,-0.000516
1610.311781,-0.000545
1612.240298,-0.000548
1614.168815,-0.000527
1616.097332,-0.000509
1618.025850,-0.000517
1619.954367,-0.000529
1621.882884,-0.000543
1623.811401,-0.000576
1625.739918,-0.000614
1627.668435,-0.000642
1629.596952,-0.000668
1631.525469,-0.000688
1633.453986,-0.000668
1635.382504,-0.000583
1637.311021,-0.000538
1639.239538,-0.000597
1641.168055,-0.000655
1643.096572,-0.000638
1645.025089,-0.000520
1646.953606,-0.000370
1648.882123,-0.000325
1650.810640,-0.000333
1652.739157,-0.000341
1654.667675,-0.000426
1656.596192,-0.000524
1658.524709,-0.000572
1660.453226,-0.000578
1662.381743,-0.000573
1664.310260,-0.000570
1666.238777,-0.000537
1668.167294,-0.000458
1670.095811,-0.000376
1672.024328,-0.000350
1673.952846,-0.000367
1675.881363,-0.000407
1677.809880,-0.000436
1679.738397,-0.000427
1681.666914,-0.000379
1683.595431,-0.000307
1685.523948,-0.000285
1687.452465,-0.000325
1689.380982,-0.000371
1691.309500,-0.000379
1693.238017,-0.000319
1695.166534,-0.000186
1697.095051,-0.000058
1699.023568,-0.000043
1700.952085,-0.000075
1702.880602,-0.000068
1704.809119,-0.000037
1706.737636,0.000007
1708.666153,0.000091
1710.594671,0.000240
1712.523188,0.000492
1714.451705,0.000975
1716.380222,0.001869
1718.308739,0.002776
1720.237256,0.003209
1722.165773,0.003342
1724.094290,0.003262
1726.022807,0.002931
1727.951324,0.002387
1729.879842,0.001750
1731.808359,0.001126
1733.736876,0.000577
1735.665393,0.000225
1737.593910,0.000063
1739.522427,-0.000029
1741.450944,-0.000103
1743.379461,-0.000158
1745.307978,-0.000195
1747.236495,-0.000228
1749.165013,-0.000301
1751.093530,-0.000418
1753.022047,-0.000497
1754.950564,-0.000517
1756.879081,-0.000519
1758.807598,-0.000538
1760.736115,-0.000574
1762.664632,-0.000614
1764.593149,-0.000639
1766.521667,-0.000627
1768.450184,-0.000574
1770.378701,-0.000505
1772.307218,-0.000475
1774.235735,-0.000509
1776.164252,-0.000550
1778.092769,-0.000568
1780.021286,-0.000581
1781.949803,-0.000607
1783.878320,-0.000639
1785.806838,-0.000654
1787.735355,-0.000630
1789.663872,-0.000563
1791.592389,-0.000493
1793.520906,-0.000487
1795.449423,-0.000524
1797.377940,-0.000554
1799.306457,-0.000580
1801.234974,-0.000630
1803.163491,-0.000699
1805.092009,-0.000748
1807.020526,-0.000747
1808.949043,-0.000702
1810.877560,-0.000669
1812.806077,-0.000688
1814.734594,-0.000734
1816.663111,-0.000766
1818.591628,-0.000772
1820.520145,-0.000759
1822.448663,-0.000749
1824.377180,-0.000749
1826.305697,-0.000741
1828.234214,-0.000728
1830.162731,-0.000745
1832.091248,-0.000804
1834.019765,-0.000865
1835.948282,-0.000890
1837.876799,-0.000871
1839.805316,-0.000827
1841.733834,-0.000784
1843.662351,-0.000765
1845.590868,-0.000788
1847.519385,-0.000835
1849.447902,-0.000876
1851.376419,-0.000898
1853.304936,-0.000900
1855.233453,-0.000891
1857.161970,-0.000877
1859.090487,-0.000861
1861.019005,-0.000851
1862.947522,-0.000857
1864.876039,-0.000863
1866.804556,-0.000849
1868.733073,-0.000836
1870.661590,-0.000852
1872.590107,-0.000874
1874.518624,-0.000887
1876.447141,-0.000899
1878.375659,-0.000900
1880.304176,-0.000884
1882.232693,-0.000869
1884.161210,-0.000876
1886.089727,-0.000889
1888.018244,-0.000876
1889.946761,-0.000836
1891.875278,-0.000802
1893.803795,-0.000792
1895.732312,-0.000807
1897.660830,-0.000836
1899.589347,-0.000852
1901.517864,-0.000842
1903.446381,-0.000815
1905.374898,-0.000789
1907.303415,-0.000778
1909.231932,-0.000801
1911.160449,-0.000854
1913.088966,-0.000890
1915.017483,-0.000873
1916.946001,-0.000826
1918.874518,-0.000799
1920.803035,-0.000801
1922.731552,-0.000815
1924.660069,-0.000841
1926.588586,-0.000874
1928.517103,-0.000896
1930.445620,-0.000907
1932.374137,-0.000925
1934.302655,-0.000954
1936.231172,-0.000974
1938.159689,-0.000972
1940.088206,-0.000955
1942.016723,-0.000942
1943.945240,-0.000951
1945.873757,-0.000973
1947.802274,-0.001004
1949.730791,-0.001041
1951.659308,-0.001060
1953.587826,-0.001039
1955.516343,-0.000995
1957.444860,-0.000971
1959.373377,-0.000974
1961.301894,-0.000982
1963.230411,-0.000978
1965.158928,-0.000973
1967.087445,-0.000991
1969.015962,-0.001039
1970.944479,-0.001083
1972.872997,-0.001098
1974.801514,-0.001098
1976.730031,-0.001098
1978.658548,-0.001097
1980.587065,-0.001092
1982.515582,-0.001088
1984.444099,-0.001080
1986.372616,-0.001049
1988.301133,-0.000998
1990.229650,-0.000971
1992.158168,-0.000998
1994.086685,-0.001044
1996.015202,-0.001054
1997.943719,-0.001035
1999.872236,-0.001032
2001.800753,-0.001056
2003.729270,-0.001074
2005.657787,-0.001068
2007.586304,-0.001053
2009.514822,-0.001043
2011.443339,-0.001035
2013.371856,-0.001024
2015.300373,-0.001021
2017.228890,-0.001039
2019.157407,-0.001073
2021.085924,-0.001098
2023.014441,-0.001093
2024.942958,-0.001075
2026.871475,-0.001072
2028.799993,-0.001084
2030.728510,-0.001091
2032.657027,-0.001090
2034.585544,-0.001092
2036.514061,-0.001101
2038.442578,-0.001106
2040.371095,-0.001103
2042.299612,-0.001101
2044.228129,-0.001105
2046.156646,-0.001114
2048.085164,-0.001129
2050.013681,-0.001151
2051.942198,-0.001165
2053.870715,-0.001159
2055.799232,-0.001141
2057.727749,-0.001118
2059.656266,-0.001103
2061.584783,-0.001114
2063.513300,-0.001148
2065.441818,-0.001191
2067.370335,-0.001226
2069.298852,-0.001237
2071.227369,-0.001221
2073.155886,-0.001202
2075.084403,-0.001199
2077.012920,-0.001207
2078.941437,-0.001220
2080.869954,-0.001239
2082.798471,-0.001254
2084.726989,-0.001255
2086.655506,-0.001243
2088.584023,-0.001226
2090.512540,-0.001220
2092.441057,-0.001228
2094.369574,-0.001232
2096.298091,-0.001207
2098.226608,-0.001170
2100.155125,-0.001160
2102.083642,-0.001177
2104.012160,-0.001189
2105.940677,-0.001185
2107.869194,-0.001176
2109.797711,-0.001167
2111.726228,-0.001156
2113.654745,-0.001148
2115.583262,-0.001157
2117.511779,-0.001180
2119.440296,-0.001194
2121.368814,-0.001184
2123.297331,-0.001160
2125.225848,-0.001152
2127.154365,-0.001171
2129.082882,-0.001203
2131.011399,-0.001234
2132.939916,-0.001250
2134.868433,-0.001238
2136.796950,-0.001213
2138.725467,-0.001206
2140.653985,-0.001221
2142.582502,-0.001229
2144.511019,-0.001205
2146.439536,-0.001168
2148.368053,-0.001155
2150.296570,-0.001181
2152.225087,-0.001231
2154.153604,-0.001278
2156.082121,-0.001304
2158.010638,-0.001314
2159.939156,-0.001316
2161.867673,-0.001315
2163.796190,-0.001309
2165.724707,-0.001300
2167.653224,-0.001294
2169.581741,-0.001293
2171.510258,-0.001290
2173.438775,-0.001299
2175.367292,-0.001328
2177.295810,-0.001359
2179.224327,-0.001372
2181.152844,-0.001375
2183.081361,-0.001365
2185.009878,-0.001337
2186.938395,-0.001301
2188.866912,-0.001269
2190.795429,-0.001267
2192.723946,-0.001306
2194.652463,-0.001345
2196.580981,-0.001346
2198.509498,-0.001331
2200.438015,-0.001338
2202.366532,-0.001371
2204.295049,-0.001409
2206.223566,-0.001427
2208.152083,-0.001420
2210.080600,-0.001412
2212.009117,-0.001418
2213.937634,-0.001419
2215.866152,-0.001397
2217.794669,-0.001372
2219.723186,-0.001369
2221.651703,-0.001375
2223.580220,-0.001369
2225.508737,-0.001355
2227.437254,-0.001348
2229.365771,-0.001344
2231.294288,-0.001338
2233.222806,-0.001344
2235.151323,-0.001372
2237.079840,-0.001387
2239.008357,-0.001350
2240.936874,-0.001284
2242.865391,-0.001247
2244.793908,-0.001262
2246.722425,-0.001310
2248.650942,-0.001352
2250.579459,-0.001349
2252.507977,-0.001312
2254.436494,-0.001286
2256.365011,-0.001287
2258.293528,-0.001298
2260.222045,-0.001309
2262.150562,-0.001319
2264.079079,-0.001321
2266.007596,-0.001311
2267.936113,-0.001308
2269.864630,-0.001331
2271.793148,-0.001367
2273.721665,-0.001391
2275.650182,-0.001403
2277.578699,-0.001405
2279.507216,-0.001392
2281.435733,-0.001370
2283.364250,-0.001353
2285.292767,-0.001358
2287.221284,-0.001404
2289.149801,-0.001466
2291.078319,-0.001498
2293.006836,-0.001499
2294.935353,-0.001500
2296.863870,-0.001506
2298.792387,-0.001506
2300.720904,-0.001508
2302.649421,-0.001538
2304.577938,-0.001612
2306.506455,-0.001714
2308.434973,-0.001801
2310.363490,-0.001836
2312.292007,-0.001819
2314.220524,-0.001811
2316.149041,-0.001873
2318.077558,-0.001980
2320.006075,-0.002051
2321.934592,-0.002076
2323.863109,-0.002096
2325.791626,-0.002097
2327.720144,-0.002033
2329.648661,-0.001945
2331.577178,-0.001911
2333.505695,-0.001940
2335.434212,-0.001997
2337.362729,-0.002106
2339.291246,-0.002249
2341.219763,-0.002296
2343.148280,-0.002169
2345.076797,-0.001990
2347.005315,-0.001926
2348.933832,-0.001980
2350.862349,-0.002057
2352.790866,-0.002102
2354.719383,-0.002140
2356.647900,-0.002189
2358.576417,-0.002249
2360.504934,-0.002319
2362.433451,-0.002292
2364.361969,-0.002111
2366.290486,-0.001927
2368.219003,-0.001873
2370.147520,-0.001900
2372.076037,-0.001919
2374.004554,-0.001896
2375.933071,-0.001828
2377.861588,-0.001740
2379.790105,-0.001660
2381.718622,-0.001604
2383.647140,-0.001584
2385.575657,-0.001582
2387.504174,-0.001565
2389.432691,-0.001533
2391.361208,-0.001517
2393.289725,-0.001516
2395.218242,-0.001511
2397.146759,-0.001501
2399.075276,-0.001493
2401.003793,-0.001495
2402.932311,-0.001518
2404.860828,-0.001565
2406.789345,-0.001611
2408.717862,-0.001621
2410.646379,-0.001615
2412.574896,-0.001632
2414.503413,-0.001664
2416.431930,-0.001684
2418.360447,-0.001686
2420.288965,-0.001670
2422.217482,-0.001650
2424.145999,-0.001649
2426.074516,-0.001664
2428.003033,-0.001679
2429.931550,-0.001694
2431.860067,-0.001707
2433.788584,-0.001721
2435.717101,-0.001744
2437.645618,-0.001774
2439.574136,-0.001785
2441.502653,-0.001760
2443.431170,-0.001707
2445.359687,-0.001656
2447.288204,-0.001630
2449.216721,-0.001623
2451.145238,-0.001631
2453.073755,-0.001661
2455.002272,-0.001708
2456.930789,-0.001747
2458.859307,-0.001761
2460.787824,-0.001754
2462.716341,-0.001736
2464.644858,-0.001703
2466.573375,-0.001669
2468.501892,-0.001650
2470.430409,-0.001643
2472.358926,-0.001640
2474.287443,-0.001643
2476.215961,-0.001649
2478.144478,-0.001642
2480.072995,-0.001609
2482.001512,-0.001560
2483.930029,-0.001529
2485.858546,-0.001547
2487.787063,-0.001614
2489.715580,-0.001683
2491.644097,-0.001705
2493.572614,-0.001694
2495.501132,-0.001709
2497.429649,-0.001764
2499.358166,-0.001804
2501.286683,-0.001796
2503.215200,-0.001766
2505.143717,-0.001743
2507.072234,-0.001737
2509.000751,-0.001747
2510.929268,-0.001768
2512.857785,-0.001790
2514.786303,-0.001806
2516.714820,-0.001801
2518.643337,-0.001772
2520.571854,-0.001742
2522.500371,-0.001730
2524.428888,-0.001739
2526.357405,-0.001761
2528.285922,-0.001786
2530.214439,-0.001801
2532.142956,-0.001807
2534.071474,-0.001814
2535.999991,-0.001833
2537.928508,-0.001861
2539.857025,-0.001886
2541.785542,-0.001902
2543.714059,-0.001911
2545.642576,-0.001917
2547.571093,-0.001918
2549.499610,-0.001912
2551.428128,-0.001910
2553.356645,-0.001898
2555.285162,-0.001870
2557.213679,-0.001861
2559.142196,-0.001879
2561.070713,-0.001886
2562.999230,-0.001871
2564.927747,-0.001861
2566.856264,-0.001872
2568.784781,-0.001892
2570.713299,-0.001892
2572.641816,-0.001868
2574.570333,-0.001838
2576.498850,-0.001818
2578.427367,-0.001818
2580.355884,-0.001829
2582.284401,-0.001824
2584.212918,-0.001809
2586.141435,-0.001803
2588.069952,-0.001799
2589.998470,-0.001783
2591.926987,-0.001765
2593.855504,-0.001759
2595.784021,-0.001774
2597.712538,-0.001809
2599.641055,-0.001848
2601.569572,-0.001893
2603.498089,-0.001941
2605.426606,-0.001954
2607.355124,-0.001903
2609.283641,-0.001824
2611.212158,-0.001769
2613.140675,-0.001741
2615.069192,-0.001735
2616.997709,-0.001776
2618.926226,-0.001856
2620.854743,-0.001909
2622.783260,-0.001912
2624.711777,-0.001908
2626.640295,-0.001909
2628.568812,-0.001904
2630.497329,-0.001900
2632.425846,-0.001912
2634.354363,-0.001943
2636.282880,-0.001974
2638.211397,-0.001993
2640.139914,-0.002007
2642.068431,-0.002016
2643.996948,-0.002012
2645.925466,-0.001993
2647.853983,-0.001978
2649.782500,-0.001985
2651.711017,-0.002016
2653.639534,-0.002057
2655.568051,-0.002093
2657.496568,-0.002108
2659.425085,-0.002092
2661.353602,-0.002050
2663.282120,-0.002003
2665.210637,-0.001972
2667.139154,-0.001968
2669.067671,-0.001991
2670.996188,-0.002021
2672.924705,-0.002033
2674.853222,-0.002030
2676.781739,-0.002037
2678.710256,-0.002059
2680.638773,-0.002064
2682.567291,-0.002046
2684.495808,-0.002033
2686.424325,-0.002037
2688.352842,-0.002047
2690.281359,-0.002054
2692.209876,-0.002056
2694.138393,-0.002047
2696.066910,-0.002037
2697.995427,-0.002044
2699.923944,-0.002056
2701.852462,-0.002041
2703.780979,-0.001997
2705.709496,-0.001956
2707.638013,-0.001939
2709.566530,-0.001945
2711.495047,-0.001955
2713.423564,-0.001965
2715.352081,-0.001982
2717.280598,-0.002004
2719.209116,-0.002036
2721.137633,-0.002072
2723.066150,-0.002088
2724.994667,-0.002076
2726.923184,-0.002044
2728.851701,-0.001996
2730.780218,-0.001961
2732.708735,-0.001973
2734.637252,-0.002006
2736.565769,-0.002019
2738.494287,-0.002025
2740.422804,-0.002052
2742.351321,-0.002079
2744.279838,-0.002078
2746.208355,-0.002085
2748.136872,-0.002147
2750.065389,-0.002243
2751.993906,-0.002306
2753.922423,-0.002312
2755.850940,-0.002285
2757.779458,-0.002249
2759.707975,-0.002203
2761.636492,-0.002161
2763.565009,-0.002132
2765.493526,-0.002110
2767.422043,-0.002122
2769.350560,-0.002184
2771.279077,-0.002243
2773.207594,-0.002253
2775.136111,-0.002239
2777.064629,-0.002236
2778.993146,-0.002228
2780.921663,-0.002207
2782.850180,-0.002202
2784.778697,-0.002215
2786.707214,-0.002203
2788.635731,-0.002164
2790.564248,-0.002160
2792.492765,-0.002220
2794.421283,-0.002293
2796.349800,-0.002333
2798.278317,-0.002332
2800.206834,-0.002290
2802.135351,-0.002229
2804.063868,-0.002199
2805.992385,-0.002222
2807.920902,-0.002257
2809.849419,-0.002266
2811.777936,-0.002255
2813.706454,-0.002255
2815.634971,-0.002261
2817.563488,-0.002231
2819.492005,-0.002142
2821.420522,-0.002052
2823.349039,-0.002028
2825.277556,-0.002055
2827.206073,-0.002067
2829.134590,-0.002047
2831.063107,-0.002029
2832.991625,-0.002035
2834.920142,-0.002027
2836.848659,-0.001956
2838.777176,-0.001830
2840.705693,-0.001699
2842.634210,-0.001609
2844.562727,-0.001566
2846.491244,-0.001546
2848.419761,-0.001532
2850.348279,-0.001515
2852.276796,-0.001466
2854.205313,-0.001361
2856.133830,-0.001227
2858.062347,-0.001135
2859.990864,-0.001100
2861.919381,-0.001060
2863.847898,-0.000977
2865.776415,-0.000879
2867.704932,-0.000786
2869.633450,-0.000715
2871.561967,-0.000698
2873.490484,-0.000743
2875.419001,-0.000827
2877.347518,-0.000938
2879.276035,-0.001078
2881.204552,-0.001213
2883.133069,-0.001287
2885.061586,-0.001296
2886.990103,-0.001278
2888.918621,-0.001248
2890.847138,-0.001199
2892.775655,-0.001125
2894.704172,-0.001044
2896.632689,-0.001001
2898.561206,-0.000987
2900.489723,-0.000924
2902.418240,-0.000776
2904.346757,-0.000611
2906.275275,-0.000509
2908.203792,-0.000471
2910.132309,-0.000444
2912.060826,-0.000393
2913.989343,-0.000322
2915.917860,-0.000257
2917.846377,-0.000202
2919.774894,-0.000148
2921.703411,-0.000092
2923.631928,-0.000026
2925.560446,0.000072
2927.488963,0.000193
2929.417480,0.000296
2931.345997,0.000355
2933.274514,0.000353
2935.203031,0.000261
2937.131548,0.000101
2939.060065,-0.000041
2940.988582,-0.000104
2942.917099,-0.000071
2944.845617,0.000037
2946.774134,0.000182
2948.702651,0.000374
2950.631168,0.000659
2952.559685,0.001022
2954.488202,0.001362
2956.416719,0.001557
2958.345236,0.001562
2960.273753,0.001435
2962.202271,0.001231
2964.130788,0.000952
2966.059305,0.000618
2967.987822,0.000257
2969.916339,-0.000099
2971.844856,-0.000398
2973.773373,-0.000627
2975.701890,-0.000836
2977.630407,-0.001066
2979.558924,-0.001307
2981.487442,-0.001526
2983.415959,-0.001698
2985.344476,-0.001820
2987.272993,-0.001903
2989.201510,-0.001968
2991.130027,-0.002031
2993.058544,-0.002091
2994.987061,-0.002142
2996.915578,-0.002172
2998.844095,-0.002199
3000.772613,-0.002254
3002.701130,-0.002319
3004.629647,-0.002354
3006.558164,-0.002357
3008.486681,-0.002350
3010.415198,-0.002350
3012.343715,-0.002365
3014.272232,-0.002408
3016.200749,-0.002486
3018.129267,-0.002566
3020.057784,-0.002601
3021.986301,-0.002591
3023.914818,-0.002563
3025.843335,-0.002521
3027.771852,-0.002452
3029.700369,-0.002377
3031.628886,-0.002340
3033.557403,-0.002342
3035.485920,-0.002336
3037.414438,-0.002305
3039.342955,-0.002278
3041.271472,-0.002281
3043.199989,-0.002312
3045.128506,-0.002349
3047.057023,-0.002373
3048.985540,-0.002394
3050.914057,-0.002444
3052.842574,-0.002504
3054.771091,-0.002517
3056.699609,-0.002479
3058.628126,-0.002436
3060.556643,-0.002395
3062.485160,-0.002338
3064.413677,-0.002290
3066.342194,-0.002284
3068.270711,-0.002304
3070.199228,-0.002339
3072.127745,-0.002410
3074.056262,-0.002495
3075.984780,-0.002529
3077.913297,-0.002502
3079.841814,-0.002475
3081.770331,-0.002498
3083.698848,-0.002566
3085.627365,-0.002641
3087.555882,-0.002685
3089.484399,-0.002684
3091.412916,-0.002661
3093.341434,-0.002656
3095.269951,-0.002678
3097.198468,-0.002703
3099.126985,-0.002703
3101.055502,-0.002674
3102.984019,-0.002635
3104.912536,-0.002616
3106.841053,-0.002631
3108.769570,-0.002679
3110.698087,-0.002752
3112.626605,-0.002807
3114.555122,-0.002798
3116.483639,-0.002746
3118.412156,-0.002700
3120.340673,-0.002692
3122.269190,-0.002740
3124.197707,-0.002831
3126.126224,-0.002909
3128.054741,-0.002947
3129.983258,-0.002943
3131.911776,-0.002893
3133.840293,-0.002814
3135.768810,-0.002754
3137.697327,-0.002763
3139.625844,-0.002833
3141.554361,-0.002880
3143.482878,-0.002850
3145.411395,-0.002783
3147.339912,-0.002760
3149.268430,-0.002809
3151.196947,-0.002882
3153.125464,-0.002913
3155.053981,-0.002884
3156.982498,-0.002834
3158.911015,-0.002811
3160.839532,-0.002820
3162.768049,-0.002814
3164.696566,-0.002790
3166.625083,-0.002785
3168.553601,-0.002798
3170.482118,-0.002814
3172.410635,-0.002839
3174.339152,-0.002866
3176.267669,-0.002889
3178.196186,-0.002911
3180.124703,-0.002929
3182.053220,-0.002933
3183.981737,-0.002913
3185.910254,-0.002881
3187.838772,-0.002877
3189.767289,-0.002921
3191.695806,-0.002982
3193.624323,-0.002998
3195.552840,-0.002940
3197.481357,-0.002867
3199.409874,-0.002867
3201.338391,-0.002935
3203.266908,-0.002998
3205.195426,-0.003018
3207.123943,-0.003022
3209.052460,-0.003049
3210.980977,-0.003110
3212.909494,-0.003177
3214.838011,-0.003194
3216.766528,-0.003137
3218.695045,-0.003051
3220.623562,-0.003023
3222.552079,-0.003071
3224.480597,-0.003117
3226.409114,-0.003125
3228.337631,-0.003166
3230.266148,-0.003263
3232.194665,-0.003333
3234.123182,-0.003327
3236.051699,-0.003267
3237.980216,-0.003194
3239.908733,-0.003155
3241.837250,-0.003183
3243.765768,-0.003258
3245.694285,-0.003293
3247.622802,-0.003234
3249.551319,-0.003157
3251.479836,-0.003162
3253.408353,-0.003226
3255.336870,-0.003263
3257.265387,-0.003268
3259.193904,-0.003280
3261.122422,-0.003293
3263.050939,-0.003275
3264.979456,-0.003228
3266.907973,-0.003170
3268.836490,-0.003135
3270.765007,-0.003154
3272.693524,-0.003197
3274.622041,-0.003207
3276.550558,-0.003184
3278.479075,-0.003164
3280.407593,-0.003151
3282.336110,-0.003152
3284.264627,-0.003180
3286.193144,-0.003201
3288.121661,-0.003173
3290.050178,-0.003123
3291.978695,-0.003110
3293.907212,-0.003138
3295.835729,-0.003161
3297.764246,-0.003171
3299.692764,-0.003206
3301.621281,-0.003265
3303.549798,-0.003293
3305.478315,-0.003258
3307.406832,-0.003178
3309.335349,-0.003090
3311.263866,-0.003029
3313.192383,-0.003007
3315.120900,-0.002998
3317.049417,-0.002979
3318.977935,-0.002963
3320.906452,-0.002976
3322.834969,-0.003035
3324.763486,-0.003150
3326.692003,-0.003309
3328.620520,-0.003444
3330.549037,-0.003479
3332.477554,-0.003422
3334.406071,-0.003354
3336.334589,-0.003305
3338.263106,-0.003250
3340.191623,-0.003221
3342.120140,-0.003271
3344.048657,-0.003386
3345.977174,-0.003499
3347.905691,-0.003574
3349.834208,-0.003612
3351.762725,-0.003603
3353.691242,-0.003537
3355.619760,-0.003465
3357.548277,-0.003442
3359.476794,-0.003457
3361.405311,-0.003467
3363.333828,-0.003447
3365.262345,-0.003402
3367.190862,-0.003367
3369.119379,-0.003387
3371.047896,-0.003459
3372.976413,-0.003514
3374.904931,-0.003539
3376.833448,-0.003585
3378.761965,-0.003646
3380.690482,-0.003637
3382.618999,-0.003518
3384.547516,-0.003364
3386.476033,-0.003288
3388.404550,-0.003317
3390.333067,-0.003399
3392.261585,-0.003480
3394.190102,-0.003516
3396.118619,-0.003505
3398.047136,-0.003490
3399.975653,-0.003464
3401.904170,-0.003406
3403.832687,-0.003362
3405.761204,-0.003346
3407.689721,-0.003351
3409.618238,-0.003406
3411.546756,-0.003492
3413.475273,-0.003539
3415.403790,-0.003549
3417.332307,-0.003542
3419.260824,-0.003505
3421.189341,-0.003492
3423.117858,-0.003562
3425.046375,-0.003642
3426.974892,-0.003647
3428.903409,-0.003597
3430.831927,-0.003582
3432.760444,-0.003644
3434.688961,-0.003735
3436.617478,-0.003819
3438.545995,-0.003877
3440.474512,-0.003824
3442.403029,-0.003649
3444.331546,-0.003518
3446.260063,-0.003538
3448.188581,-0.003625
3450.117098,-0.003702
3452.045615,-0.003766
3453.974132,-0.003790
3455.902649,-0.003757
3457.831166,-0.003717
3459.759683,-0.003729
3461.688200,-0.003793
3463.616717,-0.003845
3465.545234,-0.003852
3467.473752,-0.003891
3469.402269,-0.003996
3471.330786,-0.004052
3473.259303,-0.003980
3475.187820,-0.003849
3477.116337,-0.003734
3479.044854,-0.003640
3480.973371,-0.003594
3482.901888,-0.003636
3484.830405,-0.003757
3486.758923,-0.003895
3488.687440,-0.003964
3490.615957,-0.003948
3492.544474,-0.003886
3494.472991,-0.003796
3496.401508,-0.003698
3498.330025,-0.003630
3500.258542,-0.003574
3502.187059,-0.003504
3504.115577,-0.003476
3506.044094,-0.003539
3507.972611,-0.003631
3509.901128,-0.003664
3511.829645,-0.003615
3513.758162,-0.003537
3515.686679,-0.003509
3517.615196,-0.003554
3519.543713,-0.003617
3521.472230,-0.003640
3523.400748,-0.003614
3525.329265,-0.003573
3527.257782,-0.003560
3529.186299,-0.003575
3531.114816,-0.003570
3533.043333,-0.003538
3534.971850,-0.003526
3536.900367,-0.003560
3538.828884,-0.003591
3540.757401,-0.003543
3542.685919,-0.003402
3544.614436,-0.003282
3546.542953,-0.003320
3548.471470,-0.003473
3550.399987,-0.003618
3552.328504,-0.003708
3554.257021,-0.003723
3556.185538,-0.003663
3558.114055,-0.003602
3560.042572,-0.003608
3561.971090,-0.003625
3563.899607,-0.003582
3565.828124,-0.003546
3567.756641,-0.003625
3569.685158,-0.003745
3571.613675,-0.003818
3573.542192,-0.003859
3575.470709,-0.003907
3577.399226,-0.003964
3579.327744,-0.003997
3581.256261,-0.003989
3583.184778,-0.003944
3585.113295,-0.003847
3587.041812,-0.003686
3588.970329,-0.003558
3590.898846,-0.003528
3592.827363,-0.003539
3594.755880,-0.003544
3596.684397,-0.003524
3598.612915,-0.003488
3600.541432,-0.003488
3602.469949,-0.003529
3604.398466,-0.003539
3606.326983,-0.003502
3608.255500,-0.003491
3610.184017,-0.003500
3612.112534,-0.003433
3614.041051,-0.003314
3615.969568,-0.003192
3617.898086,-0.003102
3619.826603,-0.003213
3621.755120,-0.003489
3623.683637,-0.003662
3625.612154,-0.003614
3627.540671,-0.003353
3629.469188,-0.003093
3631.397705,-0.003078
3633.326222,-0.003218
3635.254740,-0.003404
3637.183257,-0.003563
3639.111774,-0.003610
3641.040291,-0.003516
3642.968808,-0.003322
3644.897325,-0.003004
3646.825842,-0.002517
3648.754359,-0.002243
3650.682876,-0.002593
3652.611393,-0.003024
3654.539911,-0.003316
3656.468428,-0.003546
3658.396945,-0.003706
3660.325462,-0.003787
3662.253979,-0.003795
3664.182496,-0.003726
3666.111013,-0.003570
3668.039530,-0.003299
3669.968047,-0.003023
3671.896564,-0.003003
3673.825082,-0.003254
3675.753599,-0.003554
3677.682116,-0.003660
3679.610633,-0.003628
3681.539150,-0.003611
3683.467667,-0.003635
3685.396184,-0.003670
3687.324701,-0.003702
3689.253218,-0.003726
3691.181736,-0.003713
3693.110253,-0.003691
3695.038770,-0.003717
3696.967287,-0.003756
3698.895804,-0.003742
3700.824321,-0.003703
3702.752838,-0.003700
3704.681355,-0.003688
3706.609872,-0.003628
3708.538389,-0.003557
3710.466907,-0.003516
3712.395424,-0.003509
3714.323941,-0.003538
3716.252458,-0.003599
3718.180975,-0.003649
3720.109492,-0.003598
3722.038009,-0.003432
3723.966526,-0.003312
3725.895043,-0.003372
3727.823560,-0.003503
3729.752078,-0.003501
3731.680595,-0.003248
3733.609112,-0.002886
3735.537629,-0.002880
3737.466146,-0.003177
3739.394663,-0.003342
3741.323180,-0.003291
3743.251697,-0.003098
3745.180214,-0.002901
3747.108732,-0.002790
3749.037249,-0.002683
3750.965766,-0.002641
3752.894283,-0.002801
3754.822800,-0.003007
3756.751317,-0.003150
3758.679834,-0.003268
3760.608351,-0.003372
3762.536868,-0.003404
3764.465385,-0.003346
3766.393903,-0.003243
3768.322420,-0.003189
3770.250937,-0.003273
3772.179454,-0.003466
3774.107971,-0.003643
3776.036488,-0.003752
3777.965005,-0.003828
3779.893522,-0.003897
3781.822039,-0.003885
3783.750556,-0.003753
3785.679074,-0.003609
3787.607591,-0.003571
3789.536108,-0.003636
3791.464625,-0.003721
3793.393142,-0.003715
3795.321659,-0.003587
3797.250176,-0.003443
3799.178693,-0.003378
3801.107210,-0.003408
3803.035728,-0.003524
3804.964245,-0.003662
3806.892762,-0.003798
3808.821279,-0.003927
3810.749796,-0.004031
3812.678313,-0.004133
3814.606830,-0.004226
3816.535347,-0.004167
3818.463864,-0.003862
3820.392381,-0.003513
3822.320899,-0.003387
3824.249416,-0.003457
3826.177933,-0.003582
3828.106450,-0.003703
3830.034967,-0.003795
3831.963484,-0.003855
3833.892001,-0.003843
3835.820518,-0.003661
3837.749035,-0.003312
3839.677552,-0.003084
3841.606070,-0.003191
3843.534587,-0.003468
3845.463104,-0.003668
3847.391621,-0.003683
3849.320138,-0.003497
3851.248655,-0.003105
3853.177172,-0.002754
3855.105689,-0.002902
3857.034206,-0.003208
3858.962723,-0.003318
3860.891241,-0.003267
3862.819758,-0.003256
3864.748275,-0.003353
3866.676792,-0.003374
3868.605309,-0.003262
3870.533826,-0.003206
3872.462343,-0.003335
3874.390860,-0.003522
3876.319377,-0.003633
3878.247895,-0.003622
3880.176412,-0.003503
3882.104929,-0.003373
3884.033446,-0.003323
3885.961963,-0.003335
3887.890480,-0.003381
3889.818997,-0.003462
3891.747514,-0.003590
3893.676031,-0.003737
3895.604548,-0.003856
3897.533066,-0.003945
3899.461583,-0.004024
3901.390100,-0.004036
3903.318617,-0.003971
3905.247134,-0.003950
3907.175651,-0.003995
3909.104168,-0.004042
3911.032685,-0.004079
3912.961202,-0.004107
3914.889719,-0.004104
3916.818237,-0.004052
3918.746754,-0.003963
3920.675271,-0.003877
3922.603788,-0.003853
3924.532305,-0.003942
3926.460822,-0.004107
3928.389339,-0.004243
3930.317856,-0.004283
3932.246373,-0.004258
3934.174891,-0.004237
3936.103408,-0.004191
3938.031925,-0.004058
3939.960442,-0.003895
3941.888959,-0.003833
3943.817476,-0.003891
3945.745993,-0.003941
3947.674510,-0.003943
3949.603027,-0.003973
3951.531544,-0.004026
3953.460062,-0.004039
3955.388579,-0.004054
3957.317096,-0.004124
3959.245613,-0.004205
3961.174130,-0.004224
3963.102647,-0.004179
3965.031164,-0.004142
3966.959681,-0.004151
3968.888198,-0.004132
3970.816715,-0.004005
3972.745233,-0.003821
3974.673750,-0.003714
3976.602267,-0.003770
3978.530784,-0.003919
3980.459301,-0.004003
3982.387818,-0.003975
3984.316335,-0.003933
3986.244852,-0.003947
3988.173369,-0.003989
3990.101887,-0.004047
3992.030404,-0.004134
3993.958921,-0.004206
3995.887438,-0.004216
3997.815955,-0.004215
3999.744472,-0.004256
4001.672989,-0.004292
